Using settings file RTIMULib.ini
IMU Name: L3GD20 + LSM303DLHC
IMU Init Succeeded
Recommended Poll Interval: 10mS

Time, gyroX, gyroY, gyroZ, accelX, accelY, accelZ, magX, magY, magZ, phi, theta, psi

149504870.551037, 0.014966, -0.013439, 0.003360, 0.029778, 0.000000, 0.950865, -1.838165, -3.867885, 10.445353, 0.000000, -0.031306, 2.080930

149504870.552415, 0.019242, -0.012523, 0.002749, 0.029778, 0.000000, 0.950865, -3.308697, -6.962193, 18.801634, 0.000264, -0.031479, 2.080968

149504870.553776, 0.019853, -0.016188, 0.002443, 0.014889, 0.000000, 0.966453, -4.485123, -9.437640, 25.486660, 0.000528, -0.031373, 2.080337

149504870.555121, 0.013134, -0.014355, 0.002749, 0.029778, 0.000000, 0.966453, -5.446800, -11.356772, 30.788033, 0.000689, -0.031551, 2.080435

149504870.556458, 0.010079, -0.016188, -0.000305, 0.029778, 0.000000, 0.966453, -6.216141, -12.892078, 35.029133, 0.000808, -0.031748, 2.080533

149504870.557812, 0.014661, -0.017715, 0.007941, 0.014889, 0.000000, 0.982041, -6.872687, -14.242773, 38.445335, 0.000987, -0.031651, 2.080087

149504870.559170, 0.016188, -0.018937, 0.005192, 0.014889, 0.000000, 0.982041, -7.397924, -15.323328, 41.178295, 0.001185, -0.031573, 2.079615

149504870.560516, 0.021075, -0.019548, 0.003360, 0.029778, 0.000000, 0.950865, -7.818113, -16.187773, 43.364666, 0.001438, -0.031826, 2.079792

149504870.561853, 0.021686, -0.016188, 0.000611, 0.029778, 0.000000, 0.950865, -8.113192, -16.838512, 45.067116, 0.001693, -0.032028, 2.079911

149504870.563210, 0.023824, -0.016493, 0.002443, 0.029778, 0.000000, 0.950865, -8.349255, -17.359104, 46.429073, 0.001975, -0.032233, 2.080038

149504870.564578, 0.016799, -0.015882, -0.001527, 0.014889, 0.000000, 0.966453, -8.538105, -17.816393, 47.471992, 0.002167, -0.032109, 2.079426

149504870.565925, 0.019242, -0.014661, 0.002443, 0.014889, 0.000000, 0.966453, -8.689185, -18.182224, 48.306328, 0.002381, -0.031967, 2.078857

149504870.567266, 0.021380, -0.015577, 0.003360, 0.014889, 0.000000, 0.966453, -8.810049, -18.474890, 48.973797, 0.002618, -0.031840, 2.078293

149504870.568638, 0.015577, -0.014966, 0.002138, -0.000000, 0.000000, 0.950865, -8.906740, -18.627388, 49.601067, 0.002794, -0.031403, 2.077092

149504870.569998, 0.017410, -0.014966, 0.002138, 0.029778, 0.000000, 0.982041, -8.984094, -18.749388, 50.102882, 0.002969, -0.031581, 2.077202

149504870.571336, 0.015882, -0.014966, 0.004581, 0.029778, 0.000000, 0.982041, -9.087049, -18.949028, 50.504333, 0.003117, -0.031753, 2.077344

149504870.572681, 0.022602, -0.017715, 0.003971, 0.029778, 0.000000, 0.966453, -9.169414, -19.108740, 50.825497, 0.003351, -0.031968, 2.077497

149504870.574046, 0.021075, -0.013439, 0.000611, 0.029778, 0.000000, 0.966453, -9.235305, -19.236509, 51.082424, 0.003566, -0.032125, 2.077606

149504870.575390, 0.020769, -0.013134, 0.000916, 0.014889, 0.000000, 0.966453, -9.267482, -19.277500, 51.241322, 0.003772, -0.031962, 2.077097

149504870.576732, 0.016799, -0.016188, 0.002443, 0.014889, 0.000000, 0.966453, -9.293223, -19.310293, 51.368439, 0.003921, -0.031843, 2.076628

149504870.578084, 0.015272, -0.012217, 0.003665, 0.014889, 0.000000, 0.966453, -9.313816, -19.418161, 51.423485, 0.004047, -0.031675, 2.076156

149504870.579442, 0.018021, -0.011912, -0.000305, 0.029778, 0.000000, 0.982041, -9.330291, -19.504456, 51.467522, 0.004206, -0.031807, 2.076225

149504870.580789, 0.019853, -0.014050, 0.005192, 0.014889, 0.000000, 0.935277, -9.343471, -19.573490, 51.502750, 0.004386, -0.031674, 2.075763

149504870.582128, 0.019242, -0.013439, 0.005192, 0.014889, 0.000000, 0.935277, -9.354014, -19.465452, 51.530933, 0.004553, -0.031534, 2.075363

149504870.583496, 0.017715, -0.012523, 0.003054, 0.014889, 0.000000, 0.950865, -9.362450, -19.379023, 51.553478, 0.004701, -0.031384, 2.074977

149504870.584860, 0.017715, -0.010996, 0.006720, 0.014889, 0.000000, 0.950865, -9.410270, -19.452736, 51.618164, 0.004844, -0.031216, 2.074656

149504870.586203, 0.018326, -0.015272, 0.005192, 0.044666, 0.015516, 0.950865, -9.448526, -19.511707, 51.669914, 0.005316, -0.031729, 2.075191

149504870.587544, 0.018326, -0.014661, 0.003054, 0.029778, 0.000000, 0.982041, -9.479132, -19.558884, 51.711311, 0.005450, -0.031894, 2.075421

149504870.588914, 0.018326, -0.019548, 0.004581, 0.029778, 0.000000, 0.982041, -9.442007, -19.494583, 51.791077, 0.005585, -0.032126, 2.075668

149504870.590278, 0.017104, -0.012217, 0.002443, 0.029778, 0.000000, 0.982041, -9.412307, -19.443144, 51.854889, 0.005701, -0.032254, 2.075883

149504870.591620, 0.017410, -0.014050, 0.004581, 0.014889, 0.000000, 0.950865, -9.429620, -19.463217, 51.835968, 0.005817, -0.032106, 2.075528

149504870.592965, 0.014355, -0.013744, 0.000611, 0.014889, 0.000000, 0.950865, -9.443470, -19.479275, 51.820831, 0.005893, -0.031957, 2.075132

149504870.594335, 0.019853, -0.017715, 0.002443, 0.014889, 0.000000, 0.982041, -9.454550, -19.492121, 51.808723, 0.006044, -0.031858, 2.074751

149504870.595684, 0.020464, -0.017104, 0.002443, -0.000000, 0.000000, 0.982041, -9.463414, -19.481991, 51.845684, 0.006209, -0.031444, 2.073748

149504870.597020, 0.018326, -0.013744, 0.004276, -0.000000, 0.000000, 0.982041, -9.470506, -19.473886, 51.875252, 0.006339, -0.030992, 2.072799

149504870.598371, 0.018631, -0.016188, 0.003054, 0.014889, 0.000000, 0.982041, -9.476179, -19.487810, 51.875584, 0.006460, -0.030889, 2.072492

149504870.599731, 0.018021, -0.012217, 0.002749, 0.014889, 0.000000, 0.982041, -9.480718, -19.498949, 51.875847, 0.006573, -0.030736, 2.072187

149504870.601075, 0.017410, -0.014966, 0.003054, 0.014889, 0.000000, 0.982041, -9.484348, -19.507860, 51.876060, 0.006672, -0.030621, 2.071891

149504870.602414, 0.022602, -0.014050, -0.000916, 0.014889, 0.000000, 0.966453, -9.487253, -19.474173, 51.852905, 0.006838, -0.030500, 2.071575

149504870.603768, 0.017410, -0.014050, -0.000611, 0.014889, 0.000000, 0.966453, -9.489576, -19.447224, 51.834381, 0.006935, -0.030384, 2.071282

149504870.605132, 0.016493, -0.014355, 0.000611, 0.029778, 0.000000, 0.966453, -9.450362, -19.425665, 51.819561, 0.007016, -0.030585, 2.071616

149504870.606475, 0.021686, -0.015272, 0.007025, 0.029778, 0.000000, 0.982041, -9.418991, -19.408417, 51.807705, 0.007159, -0.030783, 2.071991

149504870.607815, 0.019548, -0.013439, 0.004887, 0.029778, 0.000000, 0.982041, -9.393894, -19.394619, 51.798222, 0.007271, -0.030951, 2.072317

149504870.609177, 0.016188, -0.013134, 0.002443, 0.014889, -0.015483, 0.982041, -9.414889, -19.424397, 51.883930, 0.007025, -0.030811, 2.072355

149504870.610541, 0.019548, -0.015577, 0.004581, 0.014889, -0.015483, 0.982041, -9.431685, -19.448219, 51.952496, 0.006828, -0.030707, 2.072426

149504870.611881, 0.016188, -0.013439, -0.000000, 0.029778, 0.000000, 0.935277, -9.404050, -19.487686, 51.914055, 0.006905, -0.030907, 2.072709

149504870.613225, 0.017715, -0.015882, 0.003054, 0.014889, 0.000000, 0.982041, -9.381941, -19.519258, 51.883301, 0.007002, -0.030800, 2.072315

149504870.614604, 0.016188, -0.017104, 0.004276, 0.014889, 0.000000, 0.982041, -9.364254, -19.544518, 51.858700, 0.007083, -0.030717, 2.071922

149504870.615951, 0.018631, -0.014050, 0.003971, 0.044666, -0.015483, 0.966453, -9.370641, -19.544315, 51.932312, 0.006874, -0.031226, 2.073178

149504870.617290, 0.021686, -0.015577, 0.001527, 0.014889, 0.000000, 0.966453, -9.375751, -19.544153, 51.991203, 0.007024, -0.031112, 2.072751

149504870.618641, 0.017410, -0.012828, 0.002749, 0.014889, 0.000000, 0.966453, -9.379838, -19.523617, 51.991669, 0.007117, -0.030967, 2.072360

149504870.620000, 0.018631, -0.014966, 0.003971, 0.014889, -0.015483, 0.966453, -9.383108, -19.507187, 51.992039, 0.006901, -0.030855, 2.072373

149504870.621344, 0.018631, -0.014661, 0.001833, 0.029778, -0.015483, 0.982041, -9.385724, -19.494043, 51.992336, 0.006692, -0.031044, 2.072985

149504870.622683, 0.016799, -0.013744, -0.000305, 0.029778, -0.015483, 0.982041, -9.387817, -19.442711, 52.015896, 0.006463, -0.031216, 2.073584

149504870.624035, 0.020769, -0.011301, 0.001527, 0.029778, 0.000000, 0.966453, -9.389492, -19.401646, 52.034744, 0.006608, -0.031358, 2.073853

149504870.625398, 0.016799, -0.012217, 0.003665, 0.029778, 0.000000, 0.966453, -9.349759, -19.409611, 51.979855, 0.006699, -0.031512, 2.074109

149504870.626747, 0.018937, -0.011912, 0.004276, 0.029778, 0.015516, 0.982041, -9.317972, -19.415981, 51.935940, 0.007130, -0.031646, 2.073964

149504870.628089, 0.016188, -0.017104, 0.004276, 0.014889, 0.000000, 0.950865, -9.292542, -19.421078, 51.900810, 0.007202, -0.031550, 2.073551

149504870.629452, 0.019548, -0.013134, 0.004581, 0.014889, 0.000000, 0.950865, -9.272199, -19.425156, 51.919353, 0.007321, -0.031406, 2.073133

149504870.630814, 0.015882, -0.014661, 0.003360, 0.014889, 0.000000, 0.982041, -9.255924, -19.428417, 51.934189, 0.007390, -0.031276, 2.072672

149504870.632152, 0.021380, -0.014355, 0.007330, 0.029778, -0.030966, 0.966453, -9.283978, -19.431026, 51.922733, 0.006878, -0.031474, 2.073737

149504870.633499, 0.021075, -0.017715, 0.005803, 0.029778, -0.030966, 0.966453, -9.306419, -19.433115, 51.913567, 0.006376, -0.031713, 2.074777

149504870.634865, 0.017715, -0.015577, 0.000916, 0.014889, 0.000000, 0.966453, -9.324373, -19.434786, 51.906235, 0.006489, -0.031594, 2.074313

149504870.636209, 0.021380, -0.016188, 0.004581, 0.014889, 0.000000, 0.966453, -9.297664, -19.436123, 51.970341, 0.006643, -0.031482, 2.073885

149504870.637547, 0.018631, -0.014050, 0.000305, 0.014889, 0.000000, 0.935277, -9.276296, -19.437191, 52.021626, 0.006758, -0.031353, 2.073414

149504870.638897, 0.023824, -0.013439, 0.002138, 0.014889, 0.000000, 0.966453, -9.320810, -19.458454, 51.946033, 0.006940, -0.031211, 2.072982

149504870.640255, 0.025962, -0.014966, 0.003971, 0.014889, 0.000000, 0.966453, -9.356422, -19.475464, 51.885559, 0.007149, -0.031093, 2.072603

149504870.641610, 0.020769, -0.015577, 0.003360, 0.014889, 0.000000, 0.966453, -9.384912, -19.489073, 51.837181, 0.007284, -0.030985, 2.072240

149504870.642947, 0.018021, -0.012828, 0.001833, 0.014889, 0.000000, 0.966453, -9.366632, -19.418327, 51.798477, 0.007376, -0.030840, 2.071879

149504870.644313, 0.017715, -0.012828, 0.002749, 0.014889, 0.000000, 0.966453, -9.352007, -19.361731, 51.767513, 0.007468, -0.030702, 2.071549

149504870.645671, 0.020159, -0.017104, 0.004581, 0.029778, 0.000000, 0.935277, -9.319771, -19.336861, 51.836040, 0.007585, -0.030954, 2.071910

149504870.647013, 0.019548, -0.013439, 0.003665, -0.000000, 0.000000, 0.966453, -9.293982, -19.316965, 51.890862, 0.007705, -0.030508, 2.070906

149504870.648355, 0.019242, -0.015577, 0.003360, -0.000000, 0.000000, 0.966453, -9.273351, -19.301048, 51.934719, 0.007818, -0.030099, 2.069906

149504870.649722, 0.015272, -0.017410, 0.002749, 0.029778, 0.000000, 0.966453, -9.318455, -19.267908, 51.993126, 0.007866, -0.030348, 2.070267

149504870.651074, 0.019242, -0.019242, 0.002749, 0.029778, 0.000000, 0.966453, -9.354538, -19.241396, 52.039852, 0.007962, -0.030614, 2.070662

149504870.652412, 0.018021, -0.018021, 0.003665, 0.029778, 0.000000, 0.950865, -9.383405, -19.220186, 52.030586, 0.008038, -0.030866, 2.071113

149504870.653764, 0.015882, -0.012828, 0.001527, 0.029778, 0.000000, 0.950865, -9.406498, -19.203218, 52.023174, 0.008087, -0.031046, 2.071553

149504870.655124, 0.022907, -0.013439, 0.003971, 0.029778, 0.000000, 0.950865, -9.424973, -19.189644, 52.017246, 0.008229, -0.031233, 2.072037

149504870.656469, 0.019853, -0.015577, 0.001222, 0.014889, -0.015483, 0.982041, -9.460288, -19.178783, 52.012501, 0.008009, -0.031119, 2.072217

149504870.657807, 0.015882, -0.010385, 0.004581, 0.029778, 0.000000, 0.966453, -9.488541, -19.170095, 52.008705, 0.008055, -0.031251, 2.072734

149504870.659158, 0.021380, -0.012828, 0.002138, 0.029778, 0.000000, 0.966453, -9.449533, -19.265186, 51.982346, 0.008177, -0.031414, 2.073134

149504870.660526, 0.021686, -0.014050, 0.001222, 0.029778, 0.000000, 0.966453, -9.418328, -19.341259, 51.961258, 0.008303, -0.031591, 2.073455

149504870.661870, 0.021075, -0.016493, 0.001527, 0.029778, 0.000000, 0.966453, -9.393364, -19.402117, 51.944389, 0.008414, -0.031794, 2.073726

149504870.663207, 0.018937, -0.016493, -0.001527, -0.000000, 0.000000, 0.982041, -9.393929, -19.369171, 51.930893, 0.008511, -0.031370, 2.072680

149504870.664577, 0.016493, -0.014050, 0.001833, 0.014889, 0.000000, 0.966453, -9.394381, -19.342813, 51.920097, 0.008564, -0.031238, 2.072366

149504870.665934, 0.016799, -0.017104, -0.000000, 0.014889, 0.000000, 0.966453, -9.353669, -19.382952, 51.958107, 0.008619, -0.031147, 2.071984

149504870.667276, 0.018326, -0.015577, 0.003360, 0.044666, 0.000000, 0.982041, -9.321100, -19.415062, 51.988514, 0.008692, -0.031642, 2.072829

149504870.668633, 0.021075, -0.012217, -0.000305, 0.029778, 0.000000, 0.982041, -9.295045, -19.440750, 52.012840, 0.008799, -0.031778, 2.072977

149504870.670004, 0.021075, -0.014966, 0.001833, 0.029778, 0.000000, 0.982041, -9.335810, -19.400078, 52.078949, 0.008905, -0.031951, 2.073201

149504870.671359, 0.020769, -0.018021, 0.003054, 0.014889, -0.015483, 0.966453, -9.368422, -19.367538, 52.131836, 0.008681, -0.031860, 2.073239

149504870.672697, 0.014355, -0.019242, 0.003360, 0.014889, -0.030966, 0.966453, -9.394511, -19.423141, 52.150822, 0.008051, -0.031791, 2.073678

149504870.674053, 0.014355, -0.017410, 0.000611, 0.014889, -0.030966, 0.966453, -9.415383, -19.467623, 52.166008, 0.007437, -0.031702, 2.074069

149504870.675410, 0.017715, -0.015882, 0.002138, 0.014889, 0.000000, 0.966453, -9.432081, -19.503208, 52.178158, 0.007526, -0.031586, 2.073697

149504870.676755, 0.021075, -0.017104, 0.001527, 0.014889, 0.000000, 0.966453, -9.363294, -19.450043, 52.141232, 0.007656, -0.031487, 2.073291

149504870.678094, 0.018326, -0.013134, 0.002443, 0.014889, 0.000000, 0.950865, -9.308264, -19.407511, 52.111691, 0.007746, -0.031341, 2.072888

149504870.679446, 0.017104, -0.017715, 0.002138, -0.000000, 0.000000, 0.982041, -9.325849, -19.414303, 52.111382, 0.007833, -0.030945, 2.071831

149504870.680811, 0.015577, -0.016188, 0.000611, -0.000000, 0.000000, 0.982041, -9.339916, -19.419735, 52.111134, 0.007901, -0.030539, 2.070785

149504870.682154, 0.020464, -0.016188, 0.004581, 0.029778, 0.000000, 0.966453, -9.351171, -19.424082, 52.110935, 0.008011, -0.030759, 2.071111

149504870.683491, 0.019548, -0.014355, 0.003971, 0.014889, 0.000000, 0.966453, -9.339638, -19.386742, 52.110775, 0.008108, -0.030639, 2.070796

149504870.684852, 0.020769, -0.018937, 0.002749, 0.014889, 0.000000, 0.966453, -9.330412, -19.356871, 52.110649, 0.008224, -0.030585, 2.070476

149504870.686209, 0.020769, -0.018937, 0.000611, 0.029778, 0.000000, 0.966453, -9.281959, -19.332973, 52.063900, 0.008336, -0.030843, 2.070741

149504870.687553, 0.017104, -0.015577, 0.001222, 0.029778, 0.000000, 0.966453, -9.243196, -19.313856, 52.026501, 0.008394, -0.031048, 2.070986

149504870.688897, 0.019853, -0.013744, 0.004276, 0.044666, 0.000000, 0.982041, -9.212185, -19.298561, 51.996582, 0.008492, -0.031521, 2.071833

149504870.690270, 0.021075, -0.011912, 0.004276, 0.029778, 0.000000, 0.950865, -9.269522, -19.306734, 52.019295, 0.008604, -0.031679, 2.072142

149504870.691633, 0.020464, -0.016493, 0.003360, 0.029778, 0.000000, 0.950865, -9.315392, -19.313272, 52.037464, 0.008703, -0.031893, 2.072466

149504870.692974, 0.016493, -0.013134, 0.001833, 0.014889, 0.000000, 0.950865, -9.331551, -19.338911, 52.051998, 0.008748, -0.031740, 2.072119

149504870.694330, 0.020464, -0.017715, 0.004581, 0.029778, 0.000000, 0.982041, -9.344479, -19.359423, 52.063625, 0.008843, -0.031948, 2.072422

149504870.695690, 0.023213, -0.016188, 0.002138, 0.029778, 0.000000, 0.982041, -9.354820, -19.375832, 52.072929, 0.008975, -0.032132, 2.072687

149504870.697036, 0.018021, -0.015577, 0.003971, 0.014889, -0.015483, 0.935277, -9.363094, -19.348143, 52.033726, 0.008700, -0.032015, 2.072785

149504870.698373, 0.011606, -0.014661, 0.000916, 0.014889, 0.000000, 0.982041, -9.369713, -19.325991, 52.002361, 0.008681, -0.031868, 2.072434

149504870.699727, 0.016799, -0.016188, -0.000000, 0.014889, 0.000000, 0.982041, -9.354471, -19.328678, 52.000595, 0.008733, -0.031747, 2.072065

149504870.701087, 0.020159, -0.016188, 0.003665, 0.014889, 0.000000, 0.966453, -9.342278, -19.330828, 51.999180, 0.008829, -0.031635, 2.071752

149504870.702432, 0.019853, -0.015577, 0.000611, 0.014889, 0.000000, 0.966453, -9.332524, -19.332548, 51.998051, 0.008917, -0.031514, 2.071395

149504870.703773, 0.019242, -0.014355, 0.003665, 0.029778, -0.015483, 0.966453, -9.365793, -19.333923, 51.950497, 0.008669, -0.031697, 2.072135

149504870.705139, 0.018631, -0.016493, 0.001833, 0.029778, -0.015483, 0.950865, -9.392408, -19.335024, 51.912457, 0.008418, -0.031919, 2.072884

149504870.706498, 0.020464, -0.015577, 0.006414, 0.029778, -0.015483, 0.950865, -9.372628, -19.417538, 51.905346, 0.008194, -0.032123, 2.073623

149504870.707839, 0.019853, -0.011301, 0.002749, 0.044666, 0.000000, 0.966453, -9.356804, -19.483547, 51.899658, 0.008295, -0.032557, 2.074449

149504870.709185, 0.017104, -0.013134, 0.003054, 0.014889, -0.015483, 0.966453, -9.344145, -19.536356, 51.895107, 0.008035, -0.032386, 2.074361

149504870.710564, 0.015272, -0.014050, 0.001833, 0.014889, -0.015483, 0.966453, -9.375090, -19.476562, 51.938114, 0.007760, -0.032235, 2.074312

149504870.711916, 0.014355, -0.017104, 0.000611, 0.014889, 0.000000, 0.966453, -9.399846, -19.428726, 51.972519, 0.007798, -0.032124, 2.073917

149504870.713255, 0.017104, -0.016493, 0.002138, 0.029778, 0.000000, 0.950865, -9.358042, -19.431274, 51.976719, 0.007866, -0.032325, 2.074168

149504870.714612, 0.020159, -0.016493, 0.003971, 0.029778, 0.000000, 0.950865, -9.324598, -19.433313, 51.980080, 0.007975, -0.032525, 2.074412

149504870.715970, 0.018937, -0.014050, 0.000305, 0.014889, 0.015516, 0.982041, -9.297844, -19.434944, 51.982769, 0.008390, -0.032368, 2.073576

149504870.717314, 0.016188, -0.015272, -0.000305, 0.014889, 0.015516, 0.982041, -9.358585, -19.415840, 51.938274, 0.008759, -0.032228, 2.072805

149504870.718652, 0.018021, -0.014661, 0.000916, 0.014889, 0.000000, 0.966453, -9.407179, -19.400557, 51.902676, 0.008822, -0.032082, 2.072462

149504870.720003, 0.020464, -0.019242, 0.001527, 0.014889, 0.000000, 0.966453, -9.425517, -19.388330, 51.944168, 0.008919, -0.032002, 2.072154

149504870.721364, 0.020159, -0.015272, -0.000000, 0.014889, 0.000000, 0.966453, -9.440187, -19.378550, 51.977364, 0.009012, -0.031872, 2.071848

149504870.722711, 0.024129, -0.015882, 0.003054, 0.014889, 0.000000, 0.966453, -9.451924, -19.370726, 52.003918, 0.009151, -0.031752, 2.071603

149504870.724047, 0.014966, -0.013744, 0.002138, 0.029778, -0.015483, 0.950865, -9.461313, -19.323650, 52.025162, 0.008838, -0.031933, 2.072429

149504870.725414, 0.019548, -0.016188, 0.000611, 0.029778, -0.015483, 0.950865, -9.468824, -19.285990, 52.042156, 0.008596, -0.032147, 2.073244

149504870.726772, 0.021686, -0.012828, 0.002443, 0.014889, 0.000000, 0.950865, -9.433761, -19.317085, 52.009106, 0.008715, -0.031987, 2.072982

149504870.728116, 0.019853, -0.013439, 0.004581, 0.014889, 0.000000, 0.950865, -9.405710, -19.341961, 51.982666, 0.008802, -0.031837, 2.072719

149504870.729460, 0.019242, -0.010996, 0.003971, 0.014889, 0.000000, 0.982041, -9.383269, -19.361862, 51.961514, 0.008881, -0.031647, 2.072406

149504870.730824, 0.018326, -0.011301, 0.004581, -0.000000, 0.000000, 0.966453, -9.365316, -19.357374, 51.967915, 0.008963, -0.031161, 2.071448

149504870.732180, 0.015882, -0.017410, 0.001527, -0.000000, 0.000000, 0.966453, -9.350954, -19.353785, 51.973038, 0.009009, -0.030765, 2.070458

149504870.733517, 0.014966, -0.017410, -0.001833, 0.029778, 0.000000, 0.950865, -9.339464, -19.330505, 51.977135, 0.009026, -0.031005, 2.070755

149504870.734866, 0.022297, -0.016799, 0.004887, 0.014889, 0.000000, 0.966453, -9.330273, -19.311882, 51.980412, 0.009141, -0.030914, 2.070482

149504870.736221, 0.021075, -0.018021, 0.001833, 0.014889, 0.000000, 0.966453, -9.322920, -19.296982, 51.983036, 0.009240, -0.030842, 2.070174

149504870.737567, 0.023518, -0.018631, 0.000305, 0.029778, -0.015483, 0.966453, -9.337574, -19.346287, 51.961811, 0.009045, -0.031096, 2.070865

149504870.738905, 0.018937, -0.014966, -0.000305, 0.029778, 0.000000, 0.982041, -9.349297, -19.385731, 51.944832, 0.009113, -0.031278, 2.071117

149504870.740257, 0.015577, -0.015577, 0.002443, 0.029778, 0.000000, 0.982041, -9.317602, -19.376471, 52.001217, 0.009136, -0.031466, 2.071381

149504870.741622, 0.016188, -0.013134, 0.001527, 0.014889, 0.000000, 0.982041, -9.292247, -19.369062, 52.046326, 0.009172, -0.031314, 2.070987

149504870.742965, 0.020159, -0.017410, 0.001833, 0.014889, 0.000000, 0.982041, -9.271962, -19.363134, 52.082413, 0.009257, -0.031218, 2.070590

149504870.744303, 0.018021, -0.016799, -0.000611, 0.014889, 0.000000, 0.966453, -9.235198, -19.399208, 52.087959, 0.009312, -0.031120, 2.070134

149504870.745673, 0.026573, -0.016188, 0.002138, 0.029778, 0.000000, 0.982041, -9.205787, -19.428068, 52.092396, 0.009482, -0.031322, 2.070306

149504870.747032, 0.018021, -0.012828, 0.002138, 0.029778, 0.000000, 0.982041, -9.243867, -19.389931, 52.095943, 0.009531, -0.031474, 2.070521

149504870.748375, 0.016799, -0.017715, 0.003665, 0.014889, 0.000000, 0.950865, -9.274331, -19.359421, 52.098782, 0.009563, -0.031389, 2.070182

149504870.749720, 0.021380, -0.019242, -0.001222, 0.014889, 0.000000, 0.950865, -9.298702, -19.335014, 52.101055, 0.009657, -0.031327, 2.069816

149504870.751081, 0.015272, -0.014661, 0.002138, 0.014889, 0.000000, 0.950865, -9.318199, -19.376713, 52.079548, 0.009669, -0.031208, 2.069500

149504870.752438, 0.016799, -0.013134, 0.004276, 0.014889, -0.015483, 0.966453, -9.333797, -19.410072, 52.062344, 0.009377, -0.031067, 2.069579

149504870.753777, 0.018021, -0.014355, 0.006109, 0.014889, -0.015483, 0.966453, -9.346275, -19.395943, 52.025257, 0.009103, -0.030943, 2.069695

149504870.755127, 0.019242, -0.011606, 0.002749, 0.014889, 0.000000, 0.950865, -9.356258, -19.384640, 51.995586, 0.009177, -0.030790, 2.069416

149504870.756489, 0.020769, -0.018631, 0.003360, 0.014889, 0.000000, 0.982041, -9.364244, -19.375597, 51.971851, 0.009271, -0.030725, 2.069140

149504870.757834, 0.013439, -0.017104, 0.003360, 0.014889, 0.000000, 0.982041, -9.391170, -19.409180, 51.976185, 0.009264, -0.030638, 2.068876

149504870.759171, 0.018937, -0.016188, 0.003665, 0.029778, 0.000000, 0.950865, -9.412710, -19.436045, 51.979652, 0.009326, -0.030866, 2.069288

149504870.760522, 0.018631, -0.013134, 0.000916, -0.000000, 0.000000, 0.950865, -9.450479, -19.477945, 51.959103, 0.009400, -0.030418, 2.068366

149504870.761888, 0.020159, -0.014661, 0.003665, -0.000000, 0.000000, 0.950865, -9.480693, -19.511467, 51.942665, 0.009494, -0.030002, 2.067510

149504870.763233, 0.015272, -0.015272, 0.002749, 0.029778, 0.000000, 0.966453, -9.504865, -19.538284, 51.929512, 0.009504, -0.030222, 2.067942

149504870.764571, 0.020769, -0.015882, 0.001527, 0.029778, 0.000000, 0.950865, -9.503666, -19.498512, 51.942314, 0.009586, -0.030454, 2.068387

149504870.765942, 0.018937, -0.014661, 0.001527, 0.029778, 0.000000, 0.950865, -9.502707, -19.466696, 51.952557, 0.009649, -0.030670, 2.068837

149504870.767298, 0.017715, -0.013134, 0.003665, 0.029778, 0.000000, 0.950865, -9.440331, -19.441242, 51.984074, 0.009690, -0.030860, 2.069269

149504870.768648, 0.019853, -0.014355, 0.001222, 0.029778, 0.000000, 0.950865, -9.390429, -19.420879, 52.009289, 0.009758, -0.031061, 2.069632

149504870.769994, 0.017715, -0.012217, 0.002138, 0.029778, 0.000000, 0.982041, -9.350509, -19.404589, 52.029461, 0.009796, -0.031208, 2.069935

149504870.771363, 0.018631, -0.013134, 0.002138, 0.014889, -0.015483, 0.982041, -9.380181, -19.411964, 51.998951, 0.009534, -0.031064, 2.069997

149504870.772718, 0.021380, -0.018021, 0.002443, 0.014889, -0.015483, 0.982041, -9.403919, -19.417866, 51.974541, 0.009310, -0.030987, 2.070077

149504870.774057, 0.020464, -0.013744, 0.001527, 0.014889, 0.000000, 0.966453, -9.381837, -19.402178, 52.001659, 0.009395, -0.030854, 2.069777

149504870.775410, 0.017410, -0.014661, 0.003360, 0.029778, 0.000000, 0.982041, -9.364171, -19.389627, 52.023357, 0.009436, -0.031039, 2.070111

149504870.776792, 0.018326, -0.015882, 0.003360, 0.029778, 0.000000, 0.982041, -9.350039, -19.379587, 52.040714, 0.009494, -0.031242, 2.070433

149504870.778157, 0.014966, -0.015577, 0.000611, 0.014889, 0.000000, 0.966453, -9.338732, -19.351147, 51.984631, 0.009507, -0.031132, 2.070100

149504870.779509, 0.018937, -0.015882, 0.000916, 0.014889, 0.000000, 0.950865, -9.329687, -19.328394, 51.939762, 0.009570, -0.031031, 2.069790

149504870.780871, 0.014966, -0.014050, 0.001222, 0.029778, 0.000000, 0.950865, -9.384060, -19.310192, 51.927193, 0.009578, -0.031226, 2.070184

149504870.782261, 0.016799, -0.014966, 0.006109, 0.029778, 0.000000, 0.966453, -9.427558, -19.295631, 51.917137, 0.009613, -0.031424, 2.070657

149504870.783640, 0.024740, -0.017715, 0.003054, 0.029778, 0.000000, 0.966453, -9.462357, -19.283981, 51.909092, 0.009754, -0.031654, 2.071111

149504870.784999, 0.021991, -0.012217, 0.002138, -0.000000, 0.000000, 0.966453, -9.428587, -19.315479, 51.949303, 0.009865, -0.031179, 2.070216

149504870.786354, 0.018937, -0.009774, 0.001222, 0.014889, 0.000000, 0.966453, -9.401571, -19.340677, 51.981472, 0.009921, -0.030993, 2.069952

149504870.787733, 0.022907, -0.014355, 0.004581, 0.014889, 0.000000, 0.966453, -9.441567, -19.422060, 51.983883, 0.010032, -0.030874, 2.069735

149504870.789104, 0.021380, -0.015577, 0.003054, -0.000000, -0.015483, 0.966453, -9.473564, -19.487165, 51.985813, 0.009806, -0.030459, 2.069202

149504870.790465, 0.021380, -0.014966, 0.001222, 0.014889, 0.000000, 0.950865, -9.499162, -19.539249, 51.987354, 0.009897, -0.030361, 2.068962

149504870.791818, 0.016493, -0.010996, -0.000000, 0.014889, 0.000000, 0.950865, -9.519640, -19.519693, 51.965263, 0.009919, -0.030212, 2.068735

149504870.793185, 0.022602, -0.014355, 0.003665, 0.014889, 0.000000, 0.966453, -9.536022, -19.504047, 51.947594, 0.010023, -0.030108, 2.068571

149504870.794564, 0.022602, -0.014661, 0.004276, -0.000000, 0.000000, 0.982041, -9.569665, -19.450714, 51.910133, 0.010139, -0.029700, 2.067818

149504870.795938, 0.019242, -0.011912, 0.001222, -0.000000, 0.000000, 0.982041, -9.596579, -19.408049, 51.880165, 0.010206, -0.029263, 2.067080

149504870.797291, 0.017104, -0.014050, 0.001833, -0.000000, 0.000000, 0.966453, -9.618110, -19.373917, 51.856190, 0.010238, -0.028861, 2.066395

149504870.798645, 0.015577, -0.015882, 0.003054, -0.000000, 0.000000, 0.966453, -9.532653, -19.346611, 51.883656, 0.010250, -0.028491, 2.065681

149504870.800022, 0.017715, -0.015577, 0.002443, 0.014889, 0.000000, 0.982041, -9.464288, -19.324766, 51.905628, 0.010284, -0.028434, 2.065569

149504870.801401, 0.022297, -0.013134, 0.003054, 0.044666, 0.000000, 0.950865, -9.491740, -19.307289, 51.923206, 0.010389, -0.028988, 2.066771

149504870.802766, 0.021075, -0.016493, 0.004581, 0.044666, 0.000000, 0.950865, -9.513702, -19.293308, 51.937271, 0.010471, -0.029574, 2.067992

149504870.804117, 0.016188, -0.018021, 0.001833, 0.014889, 0.000000, 0.982041, -9.531272, -19.282124, 51.948521, 0.010477, -0.029525, 2.067898

149504870.805479, 0.014355, -0.015577, 0.000305, 0.014889, 0.000000, 0.950865, -9.504255, -19.273176, 51.957523, 0.010459, -0.029455, 2.067788

149504870.806865, 0.016493, -0.016493, 0.000916, 0.014889, 0.000000, 0.950865, -9.482642, -19.266018, 51.964725, 0.010475, -0.029402, 2.067675

149504870.808237, 0.019242, -0.016493, 0.005498, 0.014889, 0.000000, 0.966453, -9.465351, -19.280699, 51.970486, 0.010523, -0.029344, 2.067595

149504870.809591, 0.016799, -0.015577, 0.002749, 0.014889, 0.000000, 0.982041, -9.451519, -19.292444, 51.975094, 0.010536, -0.029267, 2.067453

149504870.810948, 0.015272, -0.010385, -0.000611, 0.014889, 0.000000, 0.982041, -9.440453, -19.301840, 51.978779, 0.010530, -0.029122, 2.067257

149504870.812330, 0.018631, -0.013744, 0.002443, 0.014889, 0.000000, 0.950865, -9.411063, -19.329765, 52.051701, 0.010572, -0.029038, 2.067091

149504870.813710, 0.017410, -0.013134, 0.001222, 0.014889, 0.000000, 0.950865, -9.387552, -19.352106, 52.110039, 0.010597, -0.028947, 2.066885

149504870.815068, 0.014661, -0.016188, 0.003971, 0.044666, 0.000000, 0.950865, -9.389279, -19.329163, 52.016766, 0.010588, -0.029528, 2.067988

149504870.816420, 0.021075, -0.018631, 0.002138, 0.044666, 0.000000, 0.950865, -9.390661, -19.310806, 51.942146, 0.010663, -0.030129, 2.069051

149504870.817784, 0.021686, -0.016493, 0.005498, 0.044666, 0.000000, 0.950865, -9.391767, -19.296122, 51.882450, 0.010746, -0.030692, 2.070144

149504870.819174, 0.021075, -0.013439, 0.004276, 0.014889, 0.000000, 0.966453, -9.392651, -19.284374, 51.834694, 0.010819, -0.030568, 2.069937

149504870.820543, 0.018631, -0.014355, 0.002749, 0.014889, -0.015483, 0.966453, -9.393358, -19.274977, 51.796490, 0.010530, -0.030459, 2.070092

149504870.821896, 0.022907, -0.017104, 0.002443, 0.014889, -0.015483, 0.966453, -9.414461, -19.247051, 51.859219, 0.010301, -0.030387, 2.070271

149504870.823254, 0.023213, -0.015577, 0.003054, 0.029778, 0.000000, 0.950865, -9.431343, -19.224710, 51.909405, 0.010403, -0.030616, 2.070755

149504870.824649, 0.021075, -0.016493, 0.002443, 0.044666, -0.046450, 0.966453, -9.383240, -19.227245, 51.879581, 0.009540, -0.031218, 2.073075

149504870.826011, 0.019548, -0.015882, 0.007330, 0.044666, -0.046450, 0.966453, -9.344757, -19.229273, 51.855724, 0.008664, -0.031791, 2.075382

149504870.827354, 0.018631, -0.015577, 0.007025, 0.029778, 0.000000, 0.966453, -9.313971, -19.230896, 51.836636, 0.008733, -0.031978, 2.075698

149504870.828692, 0.021380, -0.018326, 0.005498, 0.029778, 0.000000, 0.966453, -9.350950, -19.273010, 51.844688, 0.008836, -0.032197, 2.075998

149504870.830056, 0.019242, -0.015577, 0.002138, 0.029778, 0.000000, 0.966453, -9.380534, -19.306702, 51.851131, 0.008916, -0.032378, 2.076257

149504870.831414, 0.018021, -0.013439, 0.002443, 0.014889, 0.000000, 0.966453, -9.383665, -19.354063, 51.856285, 0.008980, -0.032216, 2.075866

149504870.832759, 0.016188, -0.014661, -0.001527, 0.014889, 0.000000, 0.966453, -9.386169, -19.391953, 51.860409, 0.009018, -0.032071, 2.075416

149504870.834105, 0.021075, -0.017104, -0.001833, -0.000000, 0.000000, 0.966453, -9.388173, -19.422264, 51.863708, 0.009134, -0.031650, 2.074305

149504870.835477, 0.017104, -0.018937, 0.000611, 0.044666, 0.000000, 0.950865, -9.369240, -19.385288, 51.866348, 0.009187, -0.032215, 2.075169

149504870.836838, 0.018326, -0.017104, 0.000916, 0.044666, 0.000000, 0.950865, -9.354094, -19.355707, 51.868462, 0.009254, -0.032741, 2.076023

149504870.838175, 0.018326, -0.012217, 0.003054, 0.014889, 0.000000, 0.982041, -9.321440, -19.393267, 51.916798, 0.009312, -0.032548, 2.075567

149504870.839532, 0.018937, -0.013744, 0.002138, 0.029778, 0.000000, 0.982041, -9.295317, -19.423315, 51.955467, 0.009377, -0.032687, 2.075699

149504870.840896, 0.018021, -0.015272, -0.001833, 0.029778, 0.000000, 0.982041, -9.274419, -19.447353, 51.986401, 0.009431, -0.032844, 2.075750

149504870.842242, 0.020464, -0.013134, 0.001527, 0.014889, 0.000000, 0.966453, -9.237164, -19.425768, 51.964500, 0.009517, -0.032666, 2.075209

149504870.843580, 0.017715, -0.017715, 0.001527, 0.014889, 0.000000, 0.966453, -9.207359, -19.408499, 51.946983, 0.009563, -0.032550, 2.074661

149504870.844929, 0.018326, -0.016799, 0.002138, 0.029778, 0.000000, 0.950865, -9.286198, -19.374275, 51.932968, 0.009613, -0.032748, 2.074865

149504870.846294, 0.016188, -0.015577, 0.000916, 0.029778, 0.000000, 0.950865, -9.349269, -19.346897, 51.921757, 0.009637, -0.032929, 2.075110

149504870.847639, 0.016493, -0.018021, -0.000305, 0.029778, 0.000000, 0.950865, -9.399726, -19.324995, 51.912788, 0.009662, -0.033136, 2.075382

149504870.848976, 0.017104, -0.015577, -0.000305, 0.029778, 0.000000, 0.966453, -9.378482, -19.348289, 51.905613, 0.009693, -0.033294, 2.075602

149504870.850338, 0.018021, -0.015577, 0.002138, 0.014889, 0.000000, 0.966453, -9.361486, -19.366924, 51.899872, 0.009742, -0.033142, 2.075197

149504870.851696, 0.021380, -0.011912, 0.001833, 0.014889, 0.000000, 0.966453, -9.388964, -19.361425, 51.941925, 0.009834, -0.032944, 2.074821

149504870.853037, 0.028711, -0.015882, 0.003665, 0.029778, -0.015483, 0.982041, -9.410945, -19.357025, 51.975567, 0.009698, -0.033109, 2.075492

149504870.854381, 0.021991, -0.014661, 0.006720, 0.029778, 0.000000, 0.982041, -9.428530, -19.353506, 52.002483, 0.009790, -0.033248, 2.075822

149504870.855763, 0.016493, -0.014966, 0.002138, 0.029778, 0.000000, 0.982041, -9.483671, -19.330282, 52.000690, 0.009817, -0.033394, 2.076139

149504870.857118, 0.020159, -0.015882, 0.004581, 0.014889, 0.000000, 0.982041, -9.527784, -19.311703, 51.999256, 0.009889, -0.033239, 2.075904

149504870.858458, 0.019242, -0.010996, 0.003360, 0.014889, 0.000000, 0.982041, -9.460393, -19.317247, 51.998112, 0.009945, -0.033021, 2.075601

149504870.859815, 0.015272, -0.015577, 0.003360, 0.014889, 0.000000, 0.950865, -9.406480, -19.321684, 51.997196, 0.009951, -0.032880, 2.075280

149504870.861173, 0.016799, -0.015272, 0.006109, 0.014889, 0.000000, 0.950865, -9.363349, -19.325232, 51.996464, 0.009977, -0.032737, 2.074965

149504870.862520, 0.017715, -0.014966, 0.000916, 0.014889, 0.000000, 0.950865, -9.369917, -19.348478, 52.019199, 0.010014, -0.032592, 2.074583

149504870.863857, 0.022602, -0.015882, 0.001222, 0.014889, 0.000000, 0.966453, -9.375172, -19.367077, 52.037388, 0.010113, -0.032454, 2.074198

149504870.865208, 0.016493, -0.011606, -0.000000, 0.029778, -0.015483, 0.935277, -9.399912, -19.341139, 52.051937, 0.009797, -0.032604, 2.074917

149504870.866575, 0.015577, -0.012523, 0.001527, 0.029778, -0.015483, 0.935277, -9.419703, -19.320389, 52.063580, 0.009478, -0.032766, 2.075668

149504870.867921, 0.015577, -0.010690, 0.000916, 0.029778, -0.015483, 0.966453, -9.435537, -19.303787, 52.072891, 0.009173, -0.032877, 2.076361

149504870.869260, 0.021075, -0.010690, 0.000305, 0.029778, -0.015483, 0.966453, -9.448204, -19.290506, 52.057018, 0.008945, -0.032984, 2.077049

149504870.870640, 0.018021, -0.018021, 0.000611, 0.014889, -0.015483, 0.982041, -9.458338, -19.279882, 52.044319, 0.008694, -0.032871, 2.077073

149504870.871995, 0.017715, -0.015882, 0.001222, 0.014889, 0.000000, 0.982041, -9.425371, -19.291792, 52.080807, 0.008758, -0.032727, 2.076702

149504870.873340, 0.014966, -0.017410, 0.001222, 0.014889, 0.000000, 0.982041, -9.398998, -19.301319, 52.109997, 0.008783, -0.032603, 2.076313

149504870.874684, 0.016799, -0.016493, 0.001833, 0.014889, 0.015516, 0.982041, -9.377900, -19.308941, 52.133350, 0.009151, -0.032474, 2.075574

149504870.876053, 0.025045, -0.017410, 0.003665, 0.014889, 0.000000, 0.950865, -9.340486, -19.355854, 52.082062, 0.009306, -0.032370, 2.075190

149504870.877402, 0.017715, -0.014355, 0.001222, 0.014889, 0.000000, 0.950865, -9.310554, -19.393385, 52.041031, 0.009357, -0.032224, 2.074740

149504870.878741, 0.020159, -0.013134, 0.003360, 0.014889, 0.000000, 0.982041, -9.348217, -19.443817, 52.054852, 0.009437, -0.032053, 2.074317

149504870.880101, 0.020769, -0.013439, 0.004276, -0.000000, 0.000000, 0.982041, -9.378347, -19.484163, 52.065910, 0.009541, -0.031586, 2.073276

149504870.881458, 0.017104, -0.011301, 0.003054, -0.000000, 0.000000, 0.982041, -9.402452, -19.516441, 52.074757, 0.009593, -0.031100, 2.072248

149504870.882806, 0.023213, -0.013744, 0.002443, 0.014889, 0.000000, 0.997629, -9.421736, -19.501446, 52.105156, 0.009710, -0.030957, 2.071887

149504870.884143, 0.014050, -0.017410, 0.001222, 0.014889, 0.000000, 0.997629, -9.437162, -19.489450, 52.129478, 0.009702, -0.030863, 2.071535

149504870.885494, 0.015882, -0.010385, 0.002749, 0.044666, 0.000000, 0.950865, -9.408431, -19.459446, 52.125610, 0.009725, -0.031327, 2.072489

149504870.886862, 0.018631, -0.016493, 0.003054, 0.029778, 0.000000, 0.966453, -9.385447, -19.435442, 52.122517, 0.009779, -0.031539, 2.072783

149504870.888205, 0.014050, -0.014966, 0.002749, 0.029778, 0.000000, 0.966453, -9.367059, -19.416239, 52.120041, 0.009767, -0.031723, 2.073061

149504870.889544, 0.018021, -0.014661, 0.003054, 0.029778, -0.046450, 0.966453, -9.352348, -19.380468, 52.094738, 0.008846, -0.031939, 2.074599

149504870.890905, 0.020769, -0.013439, 0.004581, 0.029778, 0.015516, 0.950865, -9.340580, -19.351852, 52.074497, 0.009270, -0.032106, 2.074522

149504870.892261, 0.015577, -0.013439, 0.003054, 0.029778, 0.015516, 0.950865, -9.413311, -19.328959, 52.058304, 0.009617, -0.032270, 2.074491

149504870.893613, 0.017410, -0.014050, 0.003054, 0.014889, 0.000000, 0.950865, -9.471496, -19.310644, 52.045349, 0.009656, -0.032122, 2.074245

149504870.894957, 0.018631, -0.014966, 0.004581, 0.014889, 0.000000, 0.950865, -9.518044, -19.295992, 52.034985, 0.009708, -0.031990, 2.074068

149504870.896332, 0.021380, -0.014661, 0.003971, -0.000000, 0.000000, 0.966453, -9.514209, -19.284271, 52.003368, 0.009815, -0.031544, 2.073223

149504870.897684, 0.014355, -0.014050, 0.000611, 0.014889, -0.015483, 0.982041, -9.511141, -19.274895, 51.978077, 0.009492, -0.031404, 2.073369

149504870.899021, 0.020464, -0.015272, 0.002138, 0.014889, -0.015483, 0.982041, -9.426541, -19.267393, 51.911194, 0.009253, -0.031280, 2.073464

149504870.900377, 0.014050, -0.013744, 0.001527, 0.014889, -0.015483, 0.950865, -9.358862, -19.261391, 51.857689, 0.008928, -0.031151, 2.073529

149504870.901737, 0.017715, -0.015577, 0.002443, 0.029778, 0.000000, 0.982041, -9.304718, -19.256590, 51.814884, 0.008985, -0.031343, 2.073783

149504870.903081, 0.019853, -0.016493, 0.000916, 0.029778, 0.000000, 0.982041, -9.323012, -19.273157, 51.850613, 0.009067, -0.031541, 2.074020

149504870.904419, 0.023824, -0.015882, 0.004276, 0.014889, 0.000000, 0.966453, -9.337647, -19.286411, 51.879196, 0.009199, -0.031425, 2.073688

149504870.905769, 0.025656, -0.015272, 0.002443, -0.015630, 0.015516, 0.966453, -9.390429, -19.297014, 51.878738, 0.009722, -0.030683, 2.071695

149504870.907137, 0.025351, -0.015577, 0.006109, -0.015630, 0.015516, 0.966453, -9.432653, -19.305496, 51.878372, 0.010231, -0.029962, 2.069824

149504870.908480, 0.019242, -0.013134, 0.001222, -0.000000, 0.000000, 0.950865, -9.466434, -19.312283, 51.878078, 0.010292, -0.029531, 2.068976

149504870.909818, 0.016188, -0.013134, 0.003360, -0.000000, 0.000000, 0.950865, -9.452385, -19.338120, 51.854519, 0.010310, -0.029109, 2.068151

149504870.911182, 0.016799, -0.014661, 0.002443, 0.014889, 0.000000, 0.982041, -9.441146, -19.358789, 51.835674, 0.010329, -0.029025, 2.067955

149504870.912542, 0.018326, -0.016188, 0.003971, 0.044666, -0.015483, 0.966453, -9.350009, -19.334509, 51.843922, 0.010056, -0.029602, 2.069372

149504870.913883, 0.018326, -0.014050, 0.002749, 0.044666, -0.015483, 0.966453, -9.277100, -19.315084, 51.850517, 0.009785, -0.030136, 2.070698

149504870.915227, 0.013744, -0.013439, 0.001527, 0.014889, 0.000000, 0.950865, -9.218772, -19.299545, 51.855797, 0.009773, -0.030021, 2.070305

149504870.916600, 0.018021, -0.015882, 0.003360, 0.029778, 0.000000, 0.966453, -9.254255, -19.327930, 51.860020, 0.009819, -0.030252, 2.070586

149504870.917950, 0.018326, -0.014355, 0.004276, 0.029778, 0.000000, 0.966453, -9.282642, -19.350637, 51.863396, 0.009864, -0.030455, 2.070885

149504870.919286, 0.017104, -0.014661, 0.002443, 0.014889, 0.000000, 0.982041, -9.346424, -19.266762, 51.912746, 0.009892, -0.030340, 2.070597

149504870.920639, 0.016188, -0.015272, 0.000916, 0.014889, 0.000000, 0.982041, -9.397449, -19.199661, 51.952225, 0.009910, -0.030237, 2.070367

149504870.921996, 0.020159, -0.016799, -0.000000, 0.014889, 0.000000, 0.982041, -9.438270, -19.145981, 51.983807, 0.009982, -0.030158, 2.070185

149504870.923340, 0.016799, -0.014050, 0.002138, 0.014889, 0.000000, 0.966453, -9.409317, -19.245895, 52.009075, 0.010004, -0.030048, 2.069980

149504870.924678, 0.017410, -0.016799, -0.000305, 0.014889, 0.000000, 0.966453, -9.386155, -19.325827, 52.029289, 0.010034, -0.029974, 2.069693

149504870.926037, 0.021075, -0.011301, 0.003360, 0.014889, 0.000000, 0.950865, -9.388162, -19.348955, 51.975491, 0.010115, -0.029837, 2.069463

149504870.927398, 0.020464, -0.015577, 0.002138, 0.014889, -0.015483, 0.966453, -9.389767, -19.367458, 51.932449, 0.009864, -0.029757, 2.069577

149504870.928743, 0.019548, -0.014661, -0.000305, 0.014889, -0.015483, 0.966453, -9.391051, -19.382259, 51.898018, 0.009603, -0.029664, 2.069649

149504870.930084, 0.014661, -0.013439, -0.000916, 0.029778, -0.015483, 0.966453, -9.433151, -19.312468, 51.963768, 0.009285, -0.029874, 2.070428

149504870.931447, 0.019242, -0.014355, 0.000611, 0.014889, 0.000000, 0.966453, -9.466831, -19.256634, 52.016365, 0.009357, -0.029775, 2.070240

149504870.932804, 0.020464, -0.015882, 0.003971, 0.014889, 0.000000, 0.966453, -9.452703, -19.314009, 52.035122, 0.009442, -0.029698, 2.070064

149504870.934142, 0.017715, -0.013744, 0.004581, 0.014889, 0.000000, 0.966453, -9.441400, -19.359909, 52.050125, 0.009486, -0.029592, 2.069870

149504870.935513, 0.019242, -0.012828, 0.006414, 0.014889, 0.000000, 0.966453, -9.432358, -19.396629, 52.062130, 0.009554, -0.029480, 2.069684

149504870.936879, 0.017410, -0.014661, 0.001222, 0.014889, 0.000000, 0.982041, -9.404588, -19.405598, 52.001762, 0.009598, -0.029389, 2.069394

149504870.938224, 0.018937, -0.019242, 0.004276, 0.029778, -0.015483, 0.950865, -9.382372, -19.412771, 51.953468, 0.009329, -0.029691, 2.070184

149504870.939561, 0.018631, -0.013439, 0.002749, 0.029778, -0.015483, 0.950865, -9.364599, -19.357286, 51.914833, 0.009060, -0.029909, 2.070950

149504870.940912, 0.021686, -0.015882, 0.001833, 0.029778, 0.000000, 0.966453, -9.350381, -19.312899, 51.883923, 0.009166, -0.030138, 2.071280

149504870.942278, 0.014050, -0.014050, 0.001222, 0.014889, 0.000000, 0.966453, -9.339006, -19.277388, 51.859196, 0.009173, -0.030031, 2.070969

149504870.943628, 0.014355, -0.016493, 0.003665, 0.014889, 0.000000, 0.966453, -9.309370, -19.248980, 51.862740, 0.009180, -0.029955, 2.070683

149504870.944968, 0.018326, -0.018326, 0.000916, 0.029778, 0.000000, 0.966453, -9.285661, -19.226254, 51.865574, 0.009237, -0.030214, 2.070993

149504870.946335, 0.020464, -0.014661, 0.002443, 0.014889, -0.015483, 0.982041, -9.287230, -19.289703, 51.867840, 0.009010, -0.030110, 2.071013

149504870.947695, 0.014661, -0.014050, 0.004887, 0.014889, -0.015483, 0.982041, -9.288485, -19.340464, 51.869652, 0.008709, -0.029998, 2.071043

149504870.949036, 0.016493, -0.013744, 0.003360, 0.029778, 0.000000, 0.966453, -9.289489, -19.381073, 51.871101, 0.008750, -0.030196, 2.071313

149504870.950382, 0.019548, -0.011606, 0.003360, 0.029778, 0.000000, 0.966453, -9.290293, -19.393152, 51.872261, 0.008832, -0.030363, 2.071573

149504870.951760, 0.020464, -0.013439, 0.001833, 0.029778, 0.000000, 0.966453, -9.290936, -19.402815, 51.873192, 0.008931, -0.030554, 2.071805

149504870.953110, 0.020769, -0.016799, 0.003360, 0.029778, 0.000000, 0.982041, -9.311986, -19.390137, 51.897259, 0.009026, -0.030773, 2.072054

149504870.954448, 0.019548, -0.012828, 0.002443, 0.029778, 0.000000, 0.982041, -9.328827, -19.379995, 51.916512, 0.009101, -0.030933, 2.072304

149504870.955806, 0.024129, -0.014966, 0.002138, 0.029778, 0.000000, 0.966453, -9.342299, -19.371881, 51.931915, 0.009240, -0.031131, 2.072580

149504870.957164, 0.019242, -0.012828, -0.000916, 0.029778, -0.015483, 0.950865, -9.353077, -19.406206, 51.967560, 0.008986, -0.031313, 2.073220

149504870.958510, 0.018326, -0.015577, 0.000916, 0.029778, -0.015483, 0.950865, -9.361699, -19.433666, 51.996075, 0.008722, -0.031527, 2.073865

149504870.959847, 0.026573, -0.013744, 0.004887, 0.029778, 0.000000, 0.966453, -9.368597, -19.455635, 52.018887, 0.008894, -0.031694, 2.074132

149504870.961199, 0.019853, -0.016188, 0.002749, 0.029778, 0.000000, 0.966453, -9.374115, -19.473209, 52.037136, 0.008977, -0.031892, 2.074362

149504870.962567, 0.019853, -0.015577, -0.001833, 0.044666, 0.000000, 0.950865, -9.378530, -19.487268, 52.051739, 0.009071, -0.032405, 2.075160

149504870.963911, 0.020769, -0.017104, 0.002443, 0.029778, 0.000000, 0.982041, -9.402597, -19.416883, 52.040096, 0.009162, -0.032589, 2.075393

149504870.965248, 0.021075, -0.014966, 0.004581, 0.029778, 0.000000, 0.982041, -9.421852, -19.360577, 52.030781, 0.009253, -0.032742, 2.075689

149504870.966610, 0.019853, -0.014966, 0.004581, 0.029778, 0.000000, 0.950865, -9.396183, -19.315531, 51.976681, 0.009330, -0.032915, 2.076019

149504870.967965, 0.019242, -0.015577, 0.001527, 0.029778, 0.000000, 0.982041, -9.375648, -19.279493, 51.933403, 0.009398, -0.033071, 2.076260

149504870.969308, 0.016188, -0.015272, 0.001833, 0.029778, 0.000000, 0.982041, -9.359220, -19.250664, 51.898781, 0.009423, -0.033218, 2.076499

149504870.970653, 0.018326, -0.015882, 0.002138, 0.044666, -0.015483, 0.950865, -9.407686, -19.288824, 51.871082, 0.009158, -0.033718, 2.077826

149504870.972031, 0.015577, -0.011606, -0.002443, 0.014889, 0.000000, 0.966453, -9.446460, -19.319353, 51.848923, 0.009190, -0.033507, 2.077404

149504870.973378, 0.019242, -0.013134, 0.002443, 0.014889, 0.000000, 0.966453, -9.456942, -19.282551, 51.877842, 0.009262, -0.033317, 2.077079

149504870.974715, 0.016493, -0.019242, -0.002443, 0.029778, -0.015483, 0.966453, -9.465327, -19.253109, 51.900978, 0.008973, -0.033527, 2.077742

149504870.976070, 0.018021, -0.013134, 0.003665, 0.029778, -0.015483, 0.966453, -9.472036, -19.229557, 51.919487, 0.008710, -0.033656, 2.078490

149504870.977427, 0.022602, -0.013744, 0.001833, 0.044666, 0.000000, 0.966453, -9.497939, -19.231123, 51.934296, 0.008841, -0.034093, 2.079429

149504870.978778, 0.020464, -0.014355, 0.003360, 0.044666, -0.015483, 0.950865, -9.518661, -19.232376, 51.946140, 0.008617, -0.034557, 2.080830

149504870.980115, 0.018021, -0.013744, 0.003665, 0.044666, -0.015483, 0.950865, -9.494167, -19.294601, 51.932293, 0.008362, -0.035001, 2.082158

149504870.981465, 0.014355, -0.015882, 0.003360, 0.014889, 0.000000, 0.966453, -9.474571, -19.344383, 51.921215, 0.008387, -0.034818, 2.081739

149504870.982832, 0.020769, -0.017715, 0.003054, 0.014889, 0.000000, 0.966453, -9.458895, -19.384209, 51.912354, 0.008501, -0.034665, 2.081295

149504870.984175, 0.018326, -0.015882, 0.006109, 0.014889, 0.000000, 0.966453, -9.446354, -19.375252, 51.881939, 0.008574, -0.034488, 2.080892

149504870.985513, 0.020464, -0.012523, 0.004276, 0.029778, 0.015516, 0.966453, -9.436321, -19.368086, 51.857609, 0.008990, -0.034579, 2.080733

149504870.986876, 0.015882, -0.017715, -0.000000, 0.029778, 0.015516, 0.966453, -9.387222, -19.362354, 51.884792, 0.009344, -0.034741, 2.080486

149504870.988234, 0.017715, -0.015577, 0.001527, 0.029778, 0.000000, 0.950865, -9.347943, -19.357769, 51.906540, 0.009392, -0.034880, 2.080621

149504870.989585, 0.020769, -0.014661, 0.003665, 0.014889, 0.000000, 0.966453, -9.316520, -19.354101, 51.923939, 0.009483, -0.034683, 2.080105

149504870.990933, 0.014050, -0.014661, 0.002749, 0.014889, 0.000000, 0.966453, -9.352990, -19.412392, 51.914532, 0.009483, -0.034489, 2.079591

149504870.992308, 0.019242, -0.013439, 0.003054, 0.029778, 0.000000, 0.966453, -9.382166, -19.459023, 51.907005, 0.009551, -0.034597, 2.079727

149504870.993669, 0.020159, -0.012523, -0.000305, 0.014889, -0.015483, 0.982041, -9.384971, -19.435102, 51.947632, 0.009315, -0.034373, 2.079553

149504870.995009, 0.017410, -0.014661, 0.001222, 0.014889, -0.015483, 0.982041, -9.387215, -19.415968, 51.980133, 0.009044, -0.034180, 2.079414

149504870.996357, 0.020769, -0.016799, 0.003971, 0.014889, 0.000000, 0.950865, -9.389009, -19.400660, 52.006134, 0.009140, -0.034029, 2.078976

149504870.997731, 0.020769, -0.018326, 0.001527, 0.014889, 0.000000, 0.982041, -9.369909, -19.347597, 51.956966, 0.009241, -0.033897, 2.078501

149504870.999079, 0.018937, -0.014661, 0.003054, 0.014889, 0.000000, 0.982041, -9.354629, -19.305147, 51.917629, 0.009309, -0.033714, 2.078060

149504871.000416, 0.018631, -0.016493, -0.000000, 0.014889, -0.015483, 0.950865, -9.383477, -19.332411, 51.839512, 0.009042, -0.033568, 2.078001

149504871.001767, 0.020159, -0.015882, 0.002138, 0.014889, -0.015483, 0.950865, -9.406556, -19.354221, 51.777020, 0.008802, -0.033420, 2.077978

149504871.003124, 0.019853, -0.019242, 0.003054, 0.014889, 0.000000, 0.966453, -9.425019, -19.371670, 51.727024, 0.008893, -0.033314, 2.077585

149504871.004468, 0.016188, -0.014050, -0.000611, 0.014889, -0.015483, 0.966453, -9.419253, -19.365221, 51.757000, 0.008608, -0.033140, 2.077522

149504871.005806, 0.015882, -0.016188, -0.000000, 0.014889, -0.015483, 0.966453, -9.414640, -19.360062, 51.780983, 0.008324, -0.032997, 2.077468

149504871.007159, 0.018021, -0.014355, 0.003054, 0.014889, 0.000000, 0.950865, -9.452023, -19.355934, 51.800167, 0.008399, -0.032839, 2.077125

149504871.008523, 0.012828, -0.016188, 0.002749, 0.014889, -0.015483, 0.982041, -9.481929, -19.352633, 51.815514, 0.008086, -0.032702, 2.077158

149504871.009866, 0.018937, -0.012828, 0.006414, 0.014889, -0.015483, 0.982041, -9.505854, -19.349991, 51.827793, 0.007855, -0.032521, 2.077260

149504871.011205, 0.018937, -0.011912, 0.000916, -0.000000, 0.000000, 0.982041, -9.483921, -19.327469, 51.860939, 0.007962, -0.032023, 2.076267

149504871.012574, 0.020159, -0.013744, 0.004581, -0.000000, 0.000000, 0.982041, -9.466374, -19.309452, 51.887455, 0.008087, -0.031564, 2.075337

149504871.013931, 0.022907, -0.014355, 0.001222, 0.044666, 0.000000, 0.966453, -9.452337, -19.315447, 51.908669, 0.008236, -0.032051, 2.076256

149504871.015274, 0.020464, -0.012217, 0.002443, 0.029778, 0.000000, 0.966453, -9.441108, -19.320242, 51.925640, 0.008340, -0.032188, 2.076557

149504871.016618, 0.015272, -0.010079, 0.006720, 0.029778, 0.000000, 0.966453, -9.432124, -19.324080, 51.939217, 0.008371, -0.032295, 2.076901

149504871.017986, 0.016493, -0.011301, 0.003360, 0.014889, 0.000000, 0.982041, -9.424937, -19.306740, 51.856781, 0.008427, -0.032102, 2.076553

149504871.019338, 0.016493, -0.017410, -0.000000, 0.044666, 0.000000, 0.950865, -9.419188, -19.292870, 51.790833, 0.008483, -0.032634, 2.077442

149504871.020677, 0.020464, -0.012523, 0.003360, 0.044666, 0.000000, 0.950865, -9.373515, -19.302181, 51.808048, 0.008587, -0.033088, 2.078320

149504871.022029, 0.016493, -0.016188, -0.000305, 0.044666, 0.000000, 0.966453, -9.336977, -19.309629, 51.821819, 0.008638, -0.033567, 2.079072

149504871.023387, 0.016188, -0.015577, 0.001222, 0.029778, 0.000000, 0.950865, -9.307747, -19.315588, 51.832836, 0.008680, -0.033730, 2.079217

149504871.024738, 0.024435, -0.012828, 0.005498, 0.029778, 0.000000, 0.950865, -9.304899, -19.299948, 51.864975, 0.008828, -0.033853, 2.079421

149504871.026076, 0.020769, -0.015577, 0.000305, 0.014889, 0.000000, 0.966453, -9.302621, -19.287436, 51.890686, 0.008928, -0.033686, 2.078901

149504871.027426, 0.019548, -0.012217, 0.003360, 0.014889, 0.000000, 0.966453, -9.341871, -19.318241, 51.911255, 0.009011, -0.033480, 2.078451

149504871.028801, 0.018021, -0.009163, 0.003971, 0.029778, 0.000000, 0.935277, -9.373271, -19.342886, 51.927708, 0.009072, -0.033572, 2.078708

149504871.030145, 0.015882, -0.010996, 0.005498, 0.014889, 0.000000, 0.950865, -9.398391, -19.362602, 51.940872, 0.009101, -0.033357, 2.078328

149504871.031483, 0.016493, -0.013134, 0.002443, 0.014889, 0.000000, 0.950865, -9.439023, -19.398783, 51.951405, 0.009138, -0.033174, 2.077932

149504871.032843, 0.017715, -0.014050, 0.001222, 0.014889, 0.000000, 0.982041, -9.471529, -19.427727, 51.959827, 0.009195, -0.032999, 2.077522

149504871.034200, 0.014966, -0.015577, 0.003360, 0.029778, 0.000000, 0.997629, -9.456461, -19.430475, 51.966568, 0.009209, -0.033144, 2.077735

149504871.035541, 0.019548, -0.013439, 0.004581, 0.029778, 0.000000, 0.997629, -9.444407, -19.432674, 51.971958, 0.009279, -0.033256, 2.077950

149504871.036887, 0.020159, -0.015272, 0.002749, 0.014889, 0.015516, 0.950865, -9.434763, -19.434433, 51.976273, 0.009692, -0.033108, 2.077193

149504871.038258, 0.019853, -0.016493, 0.003360, 0.014889, 0.000000, 0.966453, -9.427048, -19.415432, 51.933075, 0.009767, -0.032974, 2.076805

149504871.039615, 0.021380, -0.016799, 0.002443, 0.044666, 0.000000, 0.966453, -9.420876, -19.400230, 51.898518, 0.009860, -0.033466, 2.077648

149504871.040953, 0.021380, -0.015882, 0.003054, 0.014889, 0.000000, 0.950865, -9.415938, -19.367661, 51.824223, 0.009946, -0.033317, 2.077267

149504871.042309, 0.022297, -0.010385, 0.006109, 0.014889, 0.000000, 0.950865, -9.411988, -19.341606, 51.764786, 0.010044, -0.033100, 2.076942

149504871.043670, 0.019548, -0.014661, 0.004276, 0.029778, 0.000000, 0.950865, -9.408829, -19.320763, 51.717239, 0.010102, -0.033262, 2.077244

149504871.045015, 0.020159, -0.015272, 0.005803, 0.014889, 0.000000, 0.950865, -9.406301, -19.324495, 51.725849, 0.010167, -0.033110, 2.076916

149504871.046355, 0.024435, -0.014050, 0.005192, 0.014889, 0.000000, 0.950865, -9.404278, -19.327482, 51.732738, 0.010285, -0.032944, 2.076585

149504871.047701, 0.015577, -0.012217, 0.000916, 0.029778, 0.000000, 0.966453, -9.402660, -19.329870, 51.738247, 0.010285, -0.033063, 2.076820

149504871.049061, 0.019242, -0.016188, 0.003971, 0.029778, 0.000000, 0.966453, -9.401366, -19.331781, 51.742657, 0.010333, -0.033236, 2.077089

149504871.050405, 0.017715, -0.016799, 0.003054, 0.029778, 0.000000, 0.966453, -9.400331, -19.333311, 51.746181, 0.010359, -0.033410, 2.077339

149504871.051743, 0.013744, -0.019242, 0.002749, 0.044666, 0.000000, 0.966453, -9.358430, -19.314125, 51.749004, 0.010336, -0.033922, 2.078161

149504871.053095, 0.020464, -0.015577, 0.002443, 0.044666, 0.000000, 0.966453, -9.324909, -19.298777, 51.751263, 0.010404, -0.034378, 2.078946

149504871.054454, 0.015272, -0.011606, 0.001527, 0.029778, 0.000000, 0.935277, -9.277556, -19.306906, 51.729744, 0.010398, -0.034482, 2.079096

149504871.055801, 0.015577, -0.017104, 0.001527, 0.014889, 0.000000, 0.950865, -9.239674, -19.313410, 51.712528, 0.010400, -0.034329, 2.078545

149504871.057138, 0.013744, -0.018021, 0.000916, 0.014889, 0.000000, 0.950865, -9.209368, -19.318613, 51.698757, 0.010378, -0.034189, 2.077969

149504871.058497, 0.017410, -0.014355, 0.003665, -0.046891, 0.031033, 0.982041, -9.267268, -19.302368, 51.757710, 0.011186, -0.032787, 2.074153

149504871.059858, 0.017410, -0.013744, 0.003665, 0.029778, 0.000000, 0.950865, -9.313589, -19.289371, 51.804874, 0.011193, -0.032943, 2.074443

149504871.061202, 0.017715, -0.013439, 0.001222, 0.029778, 0.000000, 0.950865, -9.289037, -19.360607, 51.819283, 0.011202, -0.033088, 2.074645

149504871.062544, 0.019242, -0.015577, 0.003360, 0.029778, 0.000000, 0.966453, -9.269395, -19.417595, 51.830807, 0.011230, -0.033249, 2.074810

149504871.065546, 0.017410, -0.014661, 0.000305, -0.000000, 0.000000, 0.982041, -9.315290, -19.401960, 51.863350, 0.011536, -0.033009, 2.073689

149504871.066883, 0.018326, -0.012217, 0.004276, 0.014889, 0.000000, 0.966453, -9.352007, -19.389454, 51.889385, 0.011547, -0.032815, 2.073333

149504871.068234, 0.016493, -0.015577, 0.003665, 0.044666, 0.000000, 0.997629, -9.381380, -19.379448, 51.910213, 0.011538, -0.033265, 2.074185

149504871.069600, 0.018937, -0.014661, 0.006720, 0.044666, 0.000000, 0.997629, -9.404879, -19.371443, 51.926876, 0.011562, -0.033697, 2.075084

149504871.070958, 0.019853, -0.013439, 0.001833, 0.029778, 0.000000, 0.950865, -9.423677, -19.365040, 51.940205, 0.011594, -0.033829, 2.075387

149504871.072299, 0.016799, -0.013134, 0.003971, 0.029778, 0.000000, 0.950865, -9.438716, -19.359917, 51.974194, 0.011581, -0.033954, 2.075727

149504871.073642, 0.025656, -0.018937, 0.006414, 0.029778, -0.015483, 0.950865, -9.450747, -19.355818, 52.001385, 0.011358, -0.034161, 2.076503

149504871.075006, 0.021991, -0.015272, 0.002749, 0.014889, 0.000000, 0.966453, -9.398763, -19.332130, 52.023136, 0.011427, -0.033988, 2.076135

149504871.076362, 0.016799, -0.015272, -0.000000, 0.014889, 0.000000, 0.966453, -9.357175, -19.313181, 52.040539, 0.011426, -0.033817, 2.075711

149504871.077705, 0.016799, -0.011301, 0.002443, 0.029778, 0.000000, 0.966453, -9.323905, -19.298021, 52.054459, 0.011417, -0.033907, 2.075945

149504871.079043, 0.016188, -0.014661, 0.002138, 0.014889, 0.000000, 0.966453, -9.317825, -19.306303, 52.018948, 0.011404, -0.033727, 2.075524

149504871.080404, 0.023518, -0.012217, 0.004276, 0.014889, 0.000000, 0.966453, -9.312962, -19.312927, 51.990540, 0.011492, -0.033521, 2.075134

149504871.081764, 0.018021, -0.013439, 0.004887, -0.000000, 0.000000, 0.950865, -9.329607, -19.297819, 51.991138, 0.011518, -0.033025, 2.074120

149504871.083107, 0.018937, -0.014355, 0.004887, -0.000000, 0.000000, 0.950865, -9.342923, -19.285732, 51.991615, 0.011552, -0.032548, 2.073142

149504871.084617, 0.020159, -0.014966, 0.000916, -0.000000, 0.000000, 0.950865, -9.333040, -19.357697, 52.038643, 0.011636, -0.032113, 2.072094

149504871.085979, 0.018631, -0.014966, 0.003360, 0.029778, 0.000000, 0.966453, -9.325133, -19.415268, 52.076267, 0.011650, -0.032288, 2.072361

149504871.087339, 0.018631, -0.013439, 0.002443, 0.029778, 0.000000, 0.966453, -9.318808, -19.461325, 52.106365, 0.011665, -0.032439, 2.072587

149504871.088683, 0.025962, -0.015272, 0.005192, 0.014889, 0.000000, 0.966453, -9.293211, -19.498169, 52.060474, 0.011775, -0.032298, 2.072173

149504871.090019, 0.022602, -0.012523, 0.004581, 0.029778, 0.000000, 0.982041, -9.272734, -19.527645, 52.023762, 0.011834, -0.032423, 2.072343

149504871.091382, 0.017715, -0.014661, 0.003360, 0.029778, 0.000000, 0.982041, -9.276888, -19.510410, 51.994392, 0.011833, -0.032578, 2.072504

149504871.092741, 0.020769, -0.016188, 0.004581, 0.029778, 0.000000, 0.950865, -9.280211, -19.496622, 51.970894, 0.011871, -0.032770, 2.072726

149504871.094087, 0.014355, -0.014966, 0.000916, 0.014889, 0.000000, 0.982041, -9.282870, -19.485592, 51.952095, 0.011827, -0.032613, 2.072238

149504871.095764, 0.017715, -0.015577, 0.001833, 0.014889, 0.000000, 0.982041, -9.264462, -19.476767, 51.983704, 0.011885, -0.032517, 2.071767

149504871.097128, 0.016188, -0.014966, 0.001833, 0.029778, -0.015483, 0.966453, -9.249734, -19.469707, 52.008991, 0.011542, -0.032690, 2.072321

149504871.098485, 0.014050, -0.013134, 0.002443, 0.044666, 0.015516, 0.950865, -9.237952, -19.423243, 52.029221, 0.011826, -0.033149, 2.072757

149504871.099834, 0.017715, -0.011912, 0.001222, 0.044666, 0.015516, 0.950865, -9.228527, -19.386070, 52.045406, 0.012152, -0.033582, 2.073178

149504871.101171, 0.018937, -0.012523, 0.001833, 0.014889, 0.000000, 0.966453, -9.220986, -19.356333, 52.058353, 0.012161, -0.033379, 2.072709

149504871.102531, 0.018021, -0.010385, 0.003054, 0.014889, 0.000000, 0.950865, -9.297099, -19.352951, 52.045387, 0.012160, -0.033161, 2.072341

149504871.103890, 0.016493, -0.015577, 0.003971, 0.014889, 0.000000, 0.950865, -9.357989, -19.350246, 52.035015, 0.012138, -0.033017, 2.072042

149504871.105234, 0.015882, -0.015272, 0.001222, 0.029778, 0.000000, 0.982041, -9.345093, -19.368490, 52.050041, 0.012104, -0.033166, 2.072297

149504871.106861, 0.016493, -0.017104, 0.001222, 0.014889, -0.015483, 0.966453, -9.334776, -19.383085, 52.062061, 0.011804, -0.033083, 2.072295

149504871.108223, 0.020159, -0.015882, 0.004276, 0.014889, -0.015483, 0.966453, -9.326522, -19.374353, 52.048355, 0.011515, -0.032942, 2.072328

149504871.109581, 0.014050, -0.014966, 0.004581, 0.029778, 0.015516, 0.950865, -9.402064, -19.367369, 52.037388, 0.011796, -0.033110, 2.072335

149504871.110925, 0.018937, -0.016799, 0.004276, 0.029778, 0.015516, 0.950865, -9.462499, -19.361780, 52.028614, 0.012134, -0.033295, 2.072386

149504871.112263, 0.017410, -0.012828, 0.001527, 0.029778, 0.000000, 0.950865, -9.449237, -19.398125, 51.998272, 0.012118, -0.033426, 2.072746

149504871.113638, 0.016188, -0.011912, 0.002138, 0.029778, 0.000000, 0.966453, -9.438627, -19.427200, 51.973999, 0.012093, -0.033536, 2.073065

149504871.114995, 0.018021, -0.012217, 0.002443, 0.029778, 0.000000, 0.966453, -9.409603, -19.348421, 51.977905, 0.012089, -0.033646, 2.073394

149504871.116339, 0.019853, -0.014355, 0.003971, 0.029778, -0.015483, 0.950865, -9.386384, -19.285397, 51.981030, 0.011781, -0.033799, 2.074167

149504871.117923, 0.020769, -0.014661, 0.001222, -0.000000, -0.015483, 0.966453, -9.367808, -19.234978, 51.983528, 0.011557, -0.033342, 2.073543

149504871.119285, 0.017410, -0.015577, 0.002749, -0.000000, -0.015483, 0.966453, -9.352948, -19.296684, 51.962204, 0.011248, -0.032874, 2.072910

149504871.120644, 0.018326, -0.015882, -0.000305, 0.029778, 0.000000, 0.982041, -9.341060, -19.346048, 51.945145, 0.011267, -0.033036, 2.073131

149504871.121987, 0.022297, -0.015577, 0.003054, 0.029778, 0.000000, 0.982041, -9.311013, -19.324316, 51.908173, 0.011334, -0.033188, 2.073378

149504871.123324, 0.019548, -0.013439, 0.001833, 0.029778, 0.000000, 0.982041, -9.286976, -19.306931, 51.878597, 0.011362, -0.033308, 2.073593

149504871.124683, 0.019548, -0.015272, 0.004276, 0.014889, 0.000000, 0.966453, -9.267746, -19.293022, 51.854935, 0.011397, -0.033152, 2.073211

149504871.126040, 0.020464, -0.014661, 0.009163, 0.029778, 0.000000, 0.935277, -9.272898, -19.343119, 51.859329, 0.011438, -0.033323, 2.073560

149504871.127384, 0.017715, -0.014661, 0.005192, 0.029778, 0.000000, 0.935277, -9.277020, -19.383196, 51.862846, 0.011440, -0.033488, 2.073834

149504871.129007, 0.020464, -0.013134, 0.003360, -0.000000, 0.000000, 0.950865, -9.259781, -19.374441, 51.865658, 0.011554, -0.033021, 2.072745

149504871.130369, 0.016493, -0.014050, 0.005803, 0.029778, 0.000000, 0.982041, -9.245990, -19.367437, 51.867908, 0.011540, -0.033157, 2.072966

149504871.131737, 0.017715, -0.016493, 0.004276, 0.029778, 0.000000, 0.982041, -9.234957, -19.361835, 51.869709, 0.011545, -0.033322, 2.073156

149504871.133079, 0.019853, -0.014661, 0.004276, 0.029778, -0.015483, 0.950865, -9.267203, -19.377762, 51.871147, 0.011247, -0.033483, 2.073794

149504871.134416, 0.018021, -0.017410, 0.002749, 0.029778, -0.015483, 0.950865, -9.293000, -19.390503, 51.872299, 0.010931, -0.033676, 2.074414

149504871.135774, 0.019242, -0.014050, -0.000305, 0.014889, 0.000000, 0.982041, -9.313638, -19.380287, 51.873222, 0.010973, -0.033490, 2.073945

149504871.137133, 0.021686, -0.017104, 0.003360, 0.029778, 0.000000, 0.982041, -9.330148, -19.372114, 51.873959, 0.011040, -0.033656, 2.074173

149504871.138476, 0.018021, -0.018937, 0.003665, 0.029778, 0.000000, 0.982041, -9.343356, -19.365576, 51.874550, 0.011055, -0.033840, 2.074414

149504871.140067, 0.022907, -0.019853, 0.003054, 0.014889, 0.000000, 0.982041, -9.333386, -19.421570, 51.944992, 0.011194, -0.033774, 2.073995

149504871.141426, 0.016493, -0.016188, 0.001833, 0.014889, -0.015483, 0.966453, -9.325411, -19.466366, 52.001347, 0.010869, -0.033621, 2.073918

149504871.142779, 0.018021, -0.016493, 0.003360, 0.014889, -0.015483, 0.966453, -9.298493, -19.481794, 51.999783, 0.010570, -0.033474, 2.073833

149504871.144122, 0.019242, -0.017104, 0.003971, 0.029778, 0.000000, 0.966453, -9.276959, -19.494137, 51.998531, 0.010610, -0.033647, 2.073999

149504871.145460, 0.017715, -0.013744, 0.004887, 0.014889, 0.000000, 0.966453, -9.362414, -19.463194, 52.044178, 0.010632, -0.033460, 2.073623

149504871.146822, 0.020159, -0.015882, 0.002749, 0.014889, 0.000000, 0.966453, -9.430779, -19.438440, 52.080696, 0.010691, -0.033310, 2.073294

149504871.148180, 0.015882, -0.015882, 0.002443, 0.014889, 0.000000, 0.982041, -9.485470, -19.418638, 52.109909, 0.010690, -0.033157, 2.073009

149504871.149524, 0.020464, -0.014661, 0.005192, 0.014889, 0.000000, 0.966453, -9.488150, -19.423204, 52.109955, 0.010746, -0.032994, 2.072777

149504871.151221, 0.016188, -0.018937, 0.005498, 0.014889, 0.000000, 0.966453, -9.490294, -19.426857, 52.109993, 0.010800, -0.032957, 2.072571

149504871.152587, 0.021380, -0.016799, 0.003971, 0.029778, 0.000000, 0.997629, -9.409863, -19.429779, 52.086700, 0.010868, -0.033121, 2.072858

149504871.153944, 0.021991, -0.017104, 0.004276, 0.014889, -0.015483, 0.950865, -9.345519, -19.432117, 52.068066, 0.010616, -0.033000, 2.072886

149504871.155287, 0.021075, -0.016799, 0.004887, 0.014889, -0.015483, 0.950865, -9.294044, -19.433987, 52.053158, 0.010354, -0.032874, 2.072878

149504871.156630, 0.022907, -0.015577, 0.004276, 0.029778, 0.015516, 0.982041, -9.314472, -19.333443, 52.041233, 0.010763, -0.033028, 2.072790

149504871.157992, 0.016493, -0.013744, 0.004276, 0.029778, 0.015516, 0.982041, -9.330815, -19.253006, 52.031693, 0.011082, -0.033158, 2.072749

149504871.159349, 0.015272, -0.016188, 0.003971, 0.014889, 0.000000, 0.997629, -9.323354, -19.290699, 52.047382, 0.011066, -0.033007, 2.072409

149504871.160696, 0.013744, -0.016799, 0.001222, 0.014889, 0.000000, 0.966453, -9.317385, -19.320852, 52.059933, 0.011029, -0.032875, 2.072040

149504871.162350, 0.018631, -0.012523, 0.003054, 0.044666, -0.015483, 0.997629, -9.333145, -19.365383, 52.023327, 0.010805, -0.033332, 2.073283

149504871.163713, 0.018326, -0.012217, 0.003665, 0.044666, -0.015483, 0.997629, -9.345754, -19.401009, 51.994041, 0.010528, -0.033738, 2.074491

149504871.165072, 0.024435, -0.014050, 0.001527, 0.029778, 0.000000, 0.966453, -9.355841, -19.429508, 51.970615, 0.010642, -0.033868, 2.074702

149504871.166414, 0.021686, -0.013744, 0.001833, 0.029778, 0.000000, 0.966453, -9.343374, -19.411491, 51.975197, 0.010714, -0.033989, 2.074910

149504871.167938, 0.021686, -0.017104, 0.003665, 0.014889, 0.000000, 0.982041, -9.333401, -19.397078, 51.978863, 0.010826, -0.033866, 2.074499

149504871.169301, 0.015577, -0.016493, 0.000916, 0.029778, 0.000000, 0.966453, -9.345959, -19.405956, 52.005119, 0.010817, -0.034026, 2.074705

149504871.170667, 0.018631, -0.012828, 0.001527, 0.029778, 0.000000, 0.966453, -9.356005, -19.413059, 52.026123, 0.010849, -0.034134, 2.074919

149504871.172010, 0.017715, -0.017410, -0.000305, 0.029778, 0.000000, 0.982041, -9.364041, -19.418741, 52.042927, 0.010866, -0.034288, 2.075090

149504871.173533, 0.020769, -0.015577, 0.005192, 0.014889, 0.000000, 0.966453, -9.452617, -19.464104, 52.033047, 0.010959, -0.034142, 2.074777

149504871.174896, 0.021075, -0.018326, 0.006109, 0.014889, 0.000000, 0.966453, -9.523477, -19.500393, 52.025143, 0.011022, -0.034011, 2.074517

149504871.176252, 0.025045, -0.015272, 0.001527, 0.014889, 0.000000, 0.950865, -9.518556, -19.447792, 52.018818, 0.011137, -0.033845, 2.074229

149504871.177596, 0.019853, -0.015577, 0.002443, 0.029778, 0.015516, 0.966453, -9.514619, -19.405710, 52.013760, 0.011496, -0.033990, 2.074225

149504871.178933, 0.023213, -0.012523, 0.004887, 0.029778, 0.015516, 0.966453, -9.511469, -19.372046, 52.009712, 0.011889, -0.034091, 2.074265

149504871.180294, 0.022907, -0.017410, 0.003665, 0.014889, 0.000000, 0.966453, -9.467876, -19.263481, 51.983150, 0.011958, -0.033948, 2.074038

149504871.181661, 0.018631, -0.017410, 0.001833, 0.029778, 0.000000, 0.982041, -9.433002, -19.176630, 51.961903, 0.011967, -0.034111, 2.074414

149504871.183004, 0.020769, -0.015882, 0.001527, 0.029778, 0.000000, 0.982041, -9.446177, -19.229597, 51.944904, 0.012000, -0.034247, 2.074764

149504871.184656, 0.018631, -0.016188, -0.000305, 0.014889, 0.000000, 0.950865, -9.456716, -19.271971, 51.931305, 0.012064, -0.034135, 2.074470

149504871.186019, 0.018937, -0.017104, 0.000916, 0.074444, -0.015483, 0.966453, -9.465147, -19.265053, 51.943748, 0.011809, -0.035252, 2.077000

149504871.187379, 0.018631, -0.016799, 0.002749, 0.074444, -0.015483, 0.966453, -9.471891, -19.259520, 51.953705, 0.011552, -0.036342, 2.079512

149504871.188723, 0.016493, -0.012828, 0.004581, 0.029778, 0.000000, 0.966453, -9.477287, -19.255093, 51.961670, 0.011535, -0.036402, 2.079835

149504871.190060, 0.015272, -0.015577, 0.001527, 0.029778, 0.000000, 0.966453, -9.461067, -19.292368, 51.968040, 0.011503, -0.036496, 2.080081

149504871.191422, 0.016493, -0.018631, 0.000611, 0.014889, 0.000000, 0.950865, -9.448092, -19.322187, 51.973137, 0.011497, -0.036326, 2.079666

149504871.192781, 0.021686, -0.013744, 0.005192, 0.014889, 0.000000, 0.966453, -9.499320, -19.305227, 52.000538, 0.011557, -0.036089, 2.079360

149504871.194125, 0.016493, -0.013439, 0.003054, 0.014889, 0.000000, 0.966453, -9.540303, -19.291658, 52.022457, 0.011546, -0.035851, 2.079070

149504871.195749, 0.013744, -0.013439, -0.000000, 0.014889, 0.000000, 0.950865, -9.573090, -19.280804, 52.039993, 0.011536, -0.035659, 2.078787

149504871.197111, 0.013134, -0.011912, 0.001222, 0.029778, 0.000000, 0.950865, -9.537709, -19.312937, 51.984051, 0.011480, -0.035733, 2.079121

149504871.198467, 0.021075, -0.013134, 0.001833, 0.029778, 0.000000, 0.950865, -9.509405, -19.338642, 51.939297, 0.011529, -0.035821, 2.079422

149504871.199811, 0.019548, -0.016188, 0.002138, 0.029778, 0.000000, 0.950865, -9.445689, -19.359207, 51.950142, 0.011554, -0.035946, 2.079663

149504871.201149, 0.024129, -0.013439, 0.005803, 0.014889, 0.000000, 0.982041, -9.394716, -19.375660, 51.958820, 0.011642, -0.035704, 2.079238

149504871.202509, 0.022602, -0.012828, 0.003665, 0.014889, 0.000000, 0.982041, -9.353938, -19.388821, 51.965763, 0.011714, -0.035462, 2.078756

149504871.203866, 0.020769, -0.011301, 0.004887, 0.014889, 0.000000, 0.966453, -9.321316, -19.358534, 51.901344, 0.011759, -0.035209, 2.078296

149504871.205209, 0.017410, -0.012217, 0.002138, 0.029778, -0.015483, 0.966453, -9.295218, -19.334305, 51.849808, 0.011431, -0.035288, 2.078820

149504871.206773, 0.017715, -0.015577, 0.003360, 0.029778, -0.015483, 0.966453, -9.356484, -19.335329, 51.855228, 0.011150, -0.035445, 2.079403

149504871.208136, 0.021991, -0.016799, 0.005192, 0.014889, 0.000000, 0.966453, -9.405498, -19.336149, 51.859566, 0.011223, -0.035267, 2.079011

149504871.209493, 0.021380, -0.014661, 0.003360, 0.014889, 0.000000, 0.950865, -9.444709, -19.336805, 51.863033, 0.011285, -0.035068, 2.078644

149504871.210838, 0.017410, -0.014050, 0.003360, 0.014889, 0.000000, 0.950865, -9.435005, -19.418962, 51.959103, 0.011292, -0.034863, 2.078243

149504871.212175, 0.018021, -0.011912, 0.001833, -0.000000, -0.015483, 0.950865, -9.427242, -19.484688, 52.035957, 0.010989, -0.034312, 2.077492

149504871.213536, 0.016493, -0.013744, 0.000916, -0.000000, -0.015483, 0.950865, -9.462104, -19.435226, 52.050793, 0.010675, -0.033799, 2.076796

149504871.214894, 0.018631, -0.017104, 0.001527, 0.014889, 0.000000, 0.997629, -9.489993, -19.395658, 52.062664, 0.010713, -0.033647, 2.076432

149504871.216238, 0.015882, -0.014355, 0.001527, 0.014889, 0.000000, 0.982041, -9.512305, -19.364004, 52.072159, 0.010710, -0.033465, 2.076116

149504871.217828, 0.018631, -0.015272, 0.003054, 0.014889, 0.000000, 0.982041, -9.550692, -19.563169, 52.079754, 0.010788, -0.033336, 2.075781

149504871.219192, 0.020769, -0.015272, 0.002443, 0.029778, 0.000000, 0.966453, -9.581400, -19.722502, 52.085831, 0.010849, -0.033491, 2.076026

149504871.220551, 0.019853, -0.014050, 0.001833, -0.000000, 0.000000, 0.935277, -9.503285, -19.666294, 52.020721, 0.010913, -0.033002, 2.074950

149504871.221895, 0.019242, -0.011301, 0.000611, -0.000000, 0.000000, 0.935277, -9.440793, -19.621328, 51.968636, 0.010966, -0.032485, 2.073846

149504871.223233, 0.021686, -0.008858, 0.001222, 0.014889, 0.000000, 0.982041, -9.411336, -19.605764, 51.996937, 0.011035, -0.032253, 2.073395

149504871.224592, 0.019853, -0.012828, 0.003971, 0.029778, 0.000000, 0.966453, -9.387770, -19.593313, 52.019577, 0.011077, -0.032396, 2.073614

149504871.225948, 0.023824, -0.015882, 0.003971, 0.029778, 0.000000, 0.966453, -9.368917, -19.583351, 52.037689, 0.011171, -0.032577, 2.073818

149504871.227479, 0.018631, -0.018021, 0.002443, -0.015630, -0.015483, 0.950865, -9.415444, -19.514158, 52.075504, 0.010935, -0.031848, 2.072398

149504871.228881, 0.018326, -0.014966, 0.001527, 0.014889, 0.000000, 0.966453, -9.452666, -19.458803, 52.105755, 0.010971, -0.031723, 2.072086

149504871.230244, 0.025656, -0.017715, -0.000916, 0.014889, 0.000000, 0.966453, -9.482444, -19.455336, 52.036663, 0.011097, -0.031632, 2.071772

149504871.231611, 0.025045, -0.016493, 0.000916, 0.014889, 0.000000, 0.966453, -9.506266, -19.452562, 51.981388, 0.011212, -0.031527, 2.071508

149504871.232955, 0.016493, -0.013744, 0.002138, 0.014889, 0.000000, 0.950865, -9.525323, -19.450344, 51.937168, 0.011207, -0.031389, 2.071292

149504871.234293, 0.015882, -0.016493, 0.000611, 0.014889, 0.000000, 0.950865, -9.499496, -19.448568, 51.971764, 0.011192, -0.031290, 2.071040

149504871.235659, 0.012523, -0.017715, 0.000611, 0.029778, 0.000000, 0.966453, -9.478835, -19.447147, 51.999439, 0.011136, -0.031519, 2.071395

149504871.237017, 0.014355, -0.017104, -0.000305, 0.029778, 0.000000, 0.966453, -9.523915, -19.405195, 51.974934, 0.011104, -0.031734, 2.071783

149504871.238360, 0.017715, -0.017104, 0.001222, -0.000000, -0.015483, 0.935277, -9.559979, -19.371634, 51.955330, 0.010791, -0.031318, 2.071321

149504871.239952, 0.017104, -0.015577, 0.003971, 0.029778, -0.015483, 0.950865, -9.527222, -19.446825, 51.939644, 0.010515, -0.031572, 2.072177

149504871.241316, 0.022297, -0.017410, 0.004276, 0.029778, -0.015483, 0.950865, -9.501015, -19.506977, 51.927097, 0.010275, -0.031810, 2.072962

149504871.242676, 0.021075, -0.016493, 0.003665, 0.014889, 0.000000, 0.966453, -9.480049, -19.555099, 51.917061, 0.010352, -0.031700, 2.072646

149504871.244020, 0.021991, -0.013439, 0.002443, 0.029778, 0.000000, 0.950865, -9.524886, -19.532373, 51.909031, 0.010433, -0.031872, 2.073009

149504871.245357, 0.017715, -0.017104, 0.003360, 0.029778, 0.000000, 0.950865, -9.560756, -19.514193, 51.902607, 0.010455, -0.032087, 2.073413

149504871.246718, 0.022297, -0.015882, 0.001833, 0.014889, -0.015483, 0.982041, -9.568915, -19.560871, 51.944115, 0.010227, -0.031961, 2.073488

149504871.248076, 0.022907, -0.012523, 0.000916, 0.029778, 0.000000, 0.966453, -9.575442, -19.598215, 51.977322, 0.010327, -0.032106, 2.073806

149504871.249422, 0.019242, -0.016493, 0.001527, 0.029778, 0.000000, 0.966453, -9.580665, -19.628090, 52.003887, 0.010374, -0.032299, 2.074117

149504871.251015, 0.019548, -0.015882, 0.002749, 0.014889, 0.015516, 0.919689, -9.605379, -19.570356, 51.978493, 0.010813, -0.032228, 2.073533

149504871.252377, 0.017715, -0.016188, 0.001222, 0.029778, 0.000000, 0.966453, -9.625151, -19.524170, 51.958176, 0.010832, -0.032417, 2.073925

149504871.253737, 0.017104, -0.015882, 0.002749, 0.029778, 0.000000, 0.966453, -9.558822, -19.466812, 51.965244, 0.010842, -0.032599, 2.074303

149504871.255081, 0.014661, -0.014661, 0.003054, 0.014889, 0.000000, 0.966453, -9.505758, -19.420927, 51.970901, 0.010820, -0.032447, 2.074030

149504871.256418, 0.016188, -0.015272, -0.000611, 0.014889, 0.000000, 0.950865, -9.463308, -19.384218, 51.975426, 0.010818, -0.032309, 2.073705

149504871.257778, 0.021991, -0.014050, 0.000305, 0.014889, 0.000000, 0.950865, -9.511494, -19.354851, 51.979046, 0.010897, -0.032162, 2.073452

149504871.259135, 0.012523, -0.014355, 0.000305, 0.029778, 0.000000, 0.966453, -9.550042, -19.331358, 51.981941, 0.010845, -0.032328, 2.073861

149504871.260477, 0.019242, -0.015577, 0.002443, 0.029778, 0.000000, 0.966453, -9.519272, -19.271748, 51.890961, 0.010880, -0.032505, 2.074291

149504871.262086, 0.020769, -0.017715, 0.001833, 0.014889, 0.000000, 0.966453, -9.494656, -19.224058, 51.818176, 0.010991, -0.032441, 2.074080

149504871.263449, 0.018021, -0.016493, 0.003665, 0.029778, 0.000000, 0.982041, -9.474962, -19.185907, 51.759949, 0.011010, -0.032622, 2.074503

149504871.264808, 0.017104, -0.016493, 0.002443, 0.029778, 0.000000, 0.982041, -9.459208, -19.175795, 51.783340, 0.011016, -0.032798, 2.074894

149504871.266149, 0.020464, -0.012828, 0.002443, 0.014889, 0.000000, 0.997629, -9.446604, -19.167706, 51.802055, 0.011067, -0.032607, 2.074640

149504871.267491, 0.020159, -0.014661, -0.001222, 0.014889, 0.000000, 0.982041, -9.457057, -19.222458, 51.840351, 0.011114, -0.032450, 2.074338

149504871.268853, 0.020464, -0.015882, 0.001222, 0.014889, 0.000000, 0.982041, -9.465420, -19.266260, 51.870987, 0.011166, -0.032314, 2.074062

149504871.270209, 0.020159, -0.015272, 0.002138, 0.014889, 0.000000, 0.950865, -9.472110, -19.301302, 51.895496, 0.011212, -0.032183, 2.073816

149504871.271553, 0.022297, -0.016493, 0.000611, 0.014889, 0.000000, 0.982041, -9.456925, -19.288519, 51.868454, 0.011284, -0.032058, 2.073525

149504871.273152, 0.020464, -0.011606, 0.003971, 0.014889, 0.000000, 0.982041, -9.444778, -19.278292, 51.846821, 0.011380, -0.031901, 2.073290

149504871.274515, 0.020159, -0.011912, 0.003054, 0.014889, 0.000000, 0.966453, -9.393988, -19.290518, 51.829514, 0.011423, -0.031729, 2.073002

149504871.275876, 0.018326, -0.012828, 0.002138, 0.014889, 0.000000, 0.966453, -9.353355, -19.300299, 51.815670, 0.011441, -0.031572, 2.072669

149504871.277234, 0.020159, -0.016799, 0.006109, 0.014889, 0.000000, 0.966453, -9.382459, -19.328533, 51.851242, 0.011480, -0.031471, 2.072408

149504871.278589, 0.020769, -0.015272, 0.002443, 0.014889, 0.000000, 0.966453, -9.405741, -19.351120, 51.879700, 0.011528, -0.031351, 2.072112

149504871.279953, 0.021075, -0.012828, 0.005192, 0.014889, 0.000000, 0.966453, -9.424367, -19.369190, 51.902466, 0.011580, -0.031203, 2.071868

149504871.281340, 0.022907, -0.013134, 0.001833, 0.014889, 0.000000, 0.966453, -9.418732, -19.383646, 51.897354, 0.011662, -0.031064, 2.071573

149504871.282711, 0.020464, -0.018631, 0.001222, 0.029778, 0.000000, 0.982041, -9.414223, -19.395210, 51.893265, 0.011703, -0.031301, 2.071875

149504871.284066, 0.016799, -0.016799, 0.003054, 0.029778, 0.000000, 0.982041, -9.410616, -19.465687, 51.913319, 0.011691, -0.031506, 2.072163

149504871.285416, 0.018326, -0.018326, 0.003360, 0.029778, 0.000000, 0.966453, -9.407730, -19.522068, 51.929359, 0.011698, -0.031737, 2.072441

149504871.286782, 0.019853, -0.015272, 0.003054, 0.029778, 0.000000, 0.950865, -9.405422, -19.567173, 51.942192, 0.011729, -0.031934, 2.072711

149504871.288168, 0.019853, -0.014661, 0.003054, 0.029778, 0.000000, 0.950865, -9.383039, -19.521624, 51.952457, 0.011763, -0.032123, 2.072977

149504871.289536, 0.017104, -0.016799, 0.004581, 0.014889, 0.000000, 0.966453, -9.365133, -19.485184, 51.960670, 0.011759, -0.032012, 2.072610

149504871.290893, 0.024129, -0.019548, 0.003665, 0.029778, 0.000000, 0.950865, -9.391881, -19.476440, 51.920593, 0.011843, -0.032260, 2.072912

149504871.292249, 0.025351, -0.017715, 0.004276, 0.029778, 0.000000, 0.950865, -9.413279, -19.469446, 51.888531, 0.011941, -0.032478, 2.073235

149504871.293622, 0.024740, -0.017104, 0.006109, 0.029778, 0.000000, 0.982041, -9.430397, -19.463850, 51.862881, 0.012032, -0.032668, 2.073552

149504871.294989, 0.015272, -0.017715, 0.002749, 0.029778, 0.015516, 0.966453, -9.423555, -19.438965, 51.912334, 0.012317, -0.032868, 2.073481

149504871.296344, 0.017410, -0.016799, 0.003360, 0.029778, 0.015516, 0.966453, -9.418082, -19.419058, 51.951897, 0.012621, -0.033051, 2.073424

149504871.297700, 0.016188, -0.012523, 0.000611, 0.029778, 0.000000, 0.950865, -9.413704, -19.403131, 51.936897, 0.012583, -0.033184, 2.073720

149504871.299061, 0.021380, -0.014966, 0.003665, 0.029778, 0.000000, 0.950865, -9.410201, -19.390390, 51.924900, 0.012615, -0.033349, 2.074052

149504871.300438, 0.021380, -0.014966, 0.004276, 0.014889, 0.000000, 0.966453, -9.407398, -19.380198, 51.915302, 0.012653, -0.033190, 2.073739

149504871.301812, 0.022297, -0.011606, 0.002749, 0.029778, 0.000000, 0.966453, -9.384620, -19.392452, 51.930946, 0.012698, -0.033301, 2.074019

149504871.303165, 0.018937, -0.017715, 0.001527, 0.029778, 0.000000, 0.966453, -9.366397, -19.402256, 51.943462, 0.012695, -0.033487, 2.074257

149504871.304518, 0.015577, -0.017715, -0.000305, 0.029778, 0.000000, 0.950865, -9.392892, -19.389690, 51.906826, 0.012648, -0.033680, 2.074512

149504871.305893, 0.024740, -0.017410, 0.004276, -0.000000, 0.000000, 0.966453, -9.414087, -19.379637, 51.877518, 0.012743, -0.033236, 2.073540

149504871.307266, 0.019242, -0.012217, 0.002138, -0.000000, 0.000000, 0.966453, -9.431044, -19.371595, 51.854073, 0.012763, -0.032729, 2.072577

149504871.308626, 0.014661, -0.014661, 0.002443, 0.029778, 0.000000, 0.950865, -9.444609, -19.365162, 51.835316, 0.012702, -0.032899, 2.072952

149504871.309980, 0.019242, -0.015272, 0.003971, 0.029778, 0.000000, 0.966453, -9.455462, -19.360014, 51.820309, 0.012701, -0.033062, 2.073329

149504871.311342, 0.017104, -0.013134, -0.000611, 0.029778, 0.000000, 0.966453, -9.484679, -19.355896, 51.948246, 0.012675, -0.033195, 2.073666

149504871.312718, 0.022907, -0.010996, 0.004276, 0.014889, 0.000000, 0.950865, -9.508054, -19.352602, 52.050598, 0.012731, -0.032991, 2.073467

149504871.314089, 0.021075, -0.015882, 0.003665, 0.014889, 0.000000, 0.950865, -9.526753, -19.349966, 52.132481, 0.012760, -0.032857, 2.073279

149504871.315442, 0.019853, -0.015577, 0.000611, 0.044666, -0.015483, 0.966453, -9.521177, -19.307041, 52.104691, 0.012457, -0.033350, 2.074700

149504871.316794, 0.018326, -0.013134, 0.002443, 0.029778, 0.000000, 0.966453, -9.516716, -19.272701, 52.082458, 0.012449, -0.033476, 2.075116

149504871.318167, 0.019242, -0.016493, 0.002749, 0.029778, 0.000000, 0.966453, -9.533683, -19.286047, 51.994701, 0.012457, -0.033647, 2.075533

149504871.319544, 0.020769, -0.014661, 0.000305, 0.014889, 0.000000, 0.950865, -9.547256, -19.296722, 51.924496, 0.012491, -0.033484, 2.075295

149504871.320905, 0.015577, -0.016799, 0.000305, 0.014889, 0.000000, 0.966453, -9.558116, -19.305264, 51.868328, 0.012451, -0.033345, 2.075056

149504871.322257, 0.015577, -0.013744, 0.001527, 0.014889, 0.000000, 0.966453, -9.566803, -19.495770, 51.893368, 0.012410, -0.033167, 2.074764

149504871.323619, 0.018021, -0.013134, 0.002443, 0.014889, 0.000000, 0.966453, -9.573752, -19.648174, 51.913399, 0.012405, -0.032985, 2.074432

149504871.324995, 0.020464, -0.014050, 0.003665, 0.029778, 0.000000, 0.966453, -9.558776, -19.525200, 51.836128, 0.012431, -0.033133, 2.074784

149504871.326356, 0.017715, -0.016799, 0.001222, 0.029778, 0.000000, 0.966453, -9.546795, -19.426821, 51.774311, 0.012418, -0.033313, 2.075128

149504871.327701, 0.021075, -0.014355, 0.001222, 0.014889, 0.000000, 0.966453, -9.537210, -19.348118, 51.724857, 0.012449, -0.033142, 2.074868

149504871.329045, 0.018326, -0.011912, 0.000916, 0.014889, 0.000000, 0.966453, -9.529543, -19.285154, 51.685295, 0.012443, -0.032943, 2.074630

149504871.330407, 0.015882, -0.013744, -0.001222, 0.044666, -0.015483, 0.982041, -9.523409, -19.234783, 51.653645, 0.012100, -0.033395, 2.075983

149504871.331765, 0.014966, -0.012217, 0.003054, 0.029778, 0.031033, 0.950865, -9.477428, -19.296528, 51.674973, 0.012709, -0.033520, 2.075630

149504871.333101, 0.016493, -0.014661, 0.002443, 0.029778, 0.031033, 0.950865, -9.440644, -19.345924, 51.692036, 0.013323, -0.033672, 2.075229

149504871.334451, 0.018021, -0.018326, 0.002138, -0.000000, -0.015483, 0.950865, -9.411217, -19.385441, 51.705685, 0.012980, -0.033231, 2.074569

149504871.335809, 0.021380, -0.018021, 0.003665, 0.029778, 0.000000, 0.966453, -9.387674, -19.417053, 51.716606, 0.013003, -0.033425, 2.074829

149504871.337155, 0.022297, -0.016188, 0.003665, 0.029778, 0.000000, 0.966453, -9.368841, -19.442345, 51.725342, 0.013035, -0.033588, 2.075059

149504871.338492, 0.018631, -0.013439, 0.003054, 0.014889, 0.000000, 0.950865, -9.374310, -19.442169, 51.802303, 0.013021, -0.033403, 2.074664

149504871.339843, 0.018326, -0.017715, 0.000916, -0.000000, 0.000000, 0.997629, -9.378686, -19.442028, 51.863873, 0.013021, -0.032963, 2.073589

149504871.341201, 0.022602, -0.014661, 0.002443, -0.000000, 0.000000, 0.997629, -9.382187, -19.441916, 51.913128, 0.013078, -0.032492, 2.072559

149504871.342546, 0.016188, -0.017104, 0.003360, 0.044666, 0.000000, 0.966453, -9.384987, -19.441826, 51.952530, 0.013034, -0.032997, 2.073453

149504871.343884, 0.012828, -0.014661, 0.000305, 0.044666, 0.000000, 0.966453, -9.387227, -19.441753, 51.984051, 0.012947, -0.033459, 2.074293

149504871.345239, 0.016493, -0.011912, 0.001222, 0.029778, 0.000000, 0.950865, -9.409555, -19.441696, 51.939297, 0.012906, -0.033576, 2.074558

149504871.346614, 0.018937, -0.018326, 0.001527, 0.029778, 0.000000, 0.966453, -9.427419, -19.441650, 51.903496, 0.012903, -0.033769, 2.074816

149504871.347957, 0.017715, -0.016799, 0.002749, 0.029778, 0.000000, 0.966453, -9.441710, -19.441614, 51.874855, 0.012876, -0.033933, 2.075094

149504871.349297, 0.021380, -0.016493, 0.001527, 0.044666, 0.000000, 0.966453, -9.453142, -19.441586, 51.851940, 0.012904, -0.034400, 2.075961

149504871.350664, 0.019853, -0.014355, 0.003665, 0.014889, 0.000000, 0.950865, -9.462288, -19.441563, 51.833611, 0.012914, -0.034216, 2.075629

149504871.352020, 0.022602, -0.014050, 0.002138, 0.014889, 0.000000, 0.950865, -9.490141, -19.421135, 51.912239, 0.012958, -0.034029, 2.075315

149504871.353358, 0.019242, -0.012523, 0.003054, 0.029778, 0.000000, 0.950865, -9.512424, -19.404793, 51.975143, 0.012950, -0.034142, 2.075681

149504871.354704, 0.020769, -0.013744, 0.005498, 0.029778, 0.000000, 0.950865, -9.530250, -19.391720, 52.025467, 0.012962, -0.034270, 2.076094

149504871.356066, 0.021075, -0.013439, 0.003665, 0.014889, 0.000000, 0.935277, -9.544510, -19.381262, 52.065727, 0.012985, -0.034081, 2.075864

149504871.357411, 0.021991, -0.016493, 0.000305, 0.014889, 0.000000, 0.966453, -9.555919, -19.372894, 52.097935, 0.013018, -0.033923, 2.075586

149504871.358748, 0.018631, -0.015882, -0.000611, 0.014889, 0.000000, 0.966453, -9.503436, -19.386608, 52.053730, 0.013005, -0.033759, 2.075253

149504871.360101, 0.019853, -0.012217, 0.002138, 0.029778, 0.000000, 0.950865, -9.461451, -19.397579, 52.018364, 0.013006, -0.033874, 2.075573

149504871.361459, 0.016493, -0.013744, 0.001527, 0.029778, 0.000000, 0.966453, -9.427862, -19.406357, 51.990074, 0.012965, -0.033997, 2.075828

149504871.362806, 0.021686, -0.017104, 0.004581, 0.029778, 0.000000, 0.966453, -9.400991, -19.413380, 51.967442, 0.012990, -0.034161, 2.076094

149504871.364143, 0.021991, -0.016188, 0.003971, 0.029778, 0.000000, 0.966453, -9.379495, -19.418997, 51.949333, 0.013016, -0.034308, 2.076325

149504871.365501, 0.019853, -0.017715, 0.002138, 0.029778, 0.000000, 0.950865, -9.341761, -19.423491, 51.981495, 0.013019, -0.034485, 2.076518

149504871.366855, 0.022297, -0.018937, 0.002138, 0.029778, 0.000000, 0.950865, -9.311574, -19.427086, 52.007225, 0.013054, -0.034674, 2.076683

149504871.368198, 0.018021, -0.014966, 0.002749, 0.029778, -0.015483, 0.982041, -9.287424, -19.429962, 52.027809, 0.012712, -0.034791, 2.077173

149504871.369539, 0.019853, -0.014050, 0.002443, 0.029778, -0.015483, 0.982041, -9.329714, -19.452671, 52.020954, 0.012402, -0.034893, 2.077673

149504871.370905, 0.016799, -0.014661, 0.001527, 0.014889, 0.000000, 0.966453, -9.363545, -19.470839, 52.015469, 0.012383, -0.034696, 2.077178

149504871.372259, 0.020159, -0.014050, 0.004581, 0.029778, -0.015483, 0.966453, -9.370074, -19.424149, 52.011082, 0.012079, -0.034813, 2.077778

149504871.373596, 0.023824, -0.011606, 0.002443, 0.029778, -0.015483, 0.966453, -9.375298, -19.386795, 52.007572, 0.011827, -0.034893, 2.078359

149504871.374944, 0.018326, -0.015272, 0.000916, 0.014889, 0.000000, 0.966453, -9.379476, -19.356913, 52.004765, 0.011837, -0.034702, 2.077903

149504871.376305, 0.018326, -0.016188, 0.003054, 0.014889, -0.015483, 0.950865, -9.362282, -19.435047, 52.025841, 0.011519, -0.034536, 2.077827

149504871.377654, 0.014966, -0.014050, 0.000916, 0.014889, -0.015483, 0.950865, -9.348527, -19.497555, 52.042702, 0.011161, -0.034342, 2.077684

149504871.378990, 0.014661, -0.014966, -0.000305, 0.014889, 0.015516, 0.950865, -9.358059, -19.445520, 52.009544, 0.011465, -0.034167, 2.076828

149504871.380342, 0.020159, -0.015882, 0.002749, 0.014889, 0.015516, 0.950865, -9.365685, -19.403893, 51.983017, 0.011835, -0.034009, 2.076052

149504871.381704, 0.021686, -0.012828, 0.003665, 0.014889, 0.000000, 0.982041, -9.371785, -19.370590, 51.961796, 0.011890, -0.033801, 2.075656

149504871.383049, 0.020159, -0.014966, 0.005192, 0.014889, 0.000000, 0.982041, -9.376666, -19.466398, 51.944817, 0.011920, -0.033624, 2.075250

149504871.384386, 0.016188, -0.012828, 0.002443, 0.014889, 0.000000, 0.982041, -9.380570, -19.543045, 51.931236, 0.011897, -0.033420, 2.074787

149504871.385742, 0.022907, -0.015577, 0.001833, 0.014889, 0.000000, 0.966453, -9.404230, -19.461506, 51.943695, 0.011967, -0.033265, 2.074389

149504871.387104, 0.018021, -0.012523, 0.002749, 0.029778, 0.000000, 0.966453, -9.423159, -19.396275, 51.953663, 0.011967, -0.033385, 2.074684

149504871.388447, 0.019242, -0.011606, 0.001222, 0.029778, 0.000000, 0.966453, -9.438301, -19.344090, 51.961636, 0.011980, -0.033488, 2.074989

149504871.389788, 0.018937, -0.008858, 0.001833, 0.044666, 0.000000, 0.966453, -9.470951, -19.486013, 51.944691, 0.011994, -0.033863, 2.075861

149504871.391151, 0.017104, -0.012828, 0.001222, 0.014889, 0.000000, 0.997629, -9.497071, -19.599552, 51.931133, 0.011986, -0.033654, 2.075430

149504871.392512, 0.016799, -0.014966, 0.000916, 0.014889, 0.000000, 0.997629, -9.456358, -19.547527, 51.920288, 0.011974, -0.033476, 2.074992

149504871.393849, 0.015882, -0.014966, 0.000916, 0.029778, 0.000000, 0.966453, -9.423788, -19.505907, 51.911613, 0.011942, -0.033620, 2.075202

149504871.395195, 0.018021, -0.017104, 0.001527, 0.029778, 0.000000, 0.966453, -9.397732, -19.472610, 51.904671, 0.011940, -0.033791, 2.075409

149504871.396566, 0.016799, -0.014050, 0.000611, -0.000000, -0.015483, 0.982041, -9.417959, -19.568422, 51.899117, 0.011624, -0.033293, 2.074642

149504871.397913, 0.019853, -0.012217, 0.002443, 0.014889, 0.000000, 0.950865, -9.434141, -19.645073, 51.894676, 0.011657, -0.033099, 2.074212

149504871.399249, 0.017104, -0.017715, 0.001527, 0.014889, 0.000000, 0.950865, -9.406014, -19.583944, 51.961094, 0.011651, -0.032980, 2.073781

149504871.400600, 0.018631, -0.016799, 0.001527, 0.014889, 0.000000, 0.950865, -9.383512, -19.535040, 52.014229, 0.011668, -0.032854, 2.073363

149504871.401956, 0.028405, -0.015272, 0.002749, 0.029778, 0.000000, 0.982041, -9.365511, -19.495916, 52.056736, 0.011811, -0.033007, 2.073572

149504871.403301, 0.024129, -0.016493, 0.003360, 0.029778, 0.000000, 0.982041, -9.392183, -19.607475, 52.044094, 0.011891, -0.033172, 2.073756

149504871.404647, 0.020769, -0.016493, 0.001833, 0.029778, 0.000000, 0.966453, -9.413521, -19.696722, 52.033981, 0.011926, -0.033343, 2.073914

149504871.405999, 0.017104, -0.015272, 0.003665, 0.029778, 0.000000, 0.966453, -9.430591, -19.625263, 52.002567, 0.011913, -0.033497, 2.074137

149504871.407364, 0.018937, -0.015577, 0.002443, 0.044666, 0.000000, 0.966453, -9.444246, -19.568096, 51.977436, 0.011932, -0.033964, 2.074977

149504871.408710, 0.021075, -0.017104, 0.001222, -0.000000, 0.000000, 0.966453, -9.455172, -19.522362, 51.957329, 0.011989, -0.033504, 2.073931

149504871.410048, 0.019853, -0.014966, 0.003665, -0.000000, 0.000000, 0.966453, -9.422838, -19.608223, 51.964569, 0.012026, -0.033025, 2.072877

149504871.411409, 0.026267, -0.016188, 0.003971, 0.029778, 0.000000, 0.935277, -9.396972, -19.676912, 51.970360, 0.012134, -0.033218, 2.073117

149504871.412767, 0.021991, -0.016493, 0.003054, 0.029778, 0.000000, 0.966453, -9.396815, -19.609415, 51.951668, 0.012183, -0.033391, 2.073327

149504871.414110, 0.019242, -0.016493, 0.001222, 0.029778, 0.000000, 0.966453, -9.396690, -19.555418, 51.936714, 0.012192, -0.033558, 2.073531

149504871.415453, 0.018631, -0.015882, 0.003054, 0.014889, -0.015483, 0.950865, -9.396590, -19.512220, 51.924751, 0.011867, -0.033409, 2.073533

149504871.416825, 0.016799, -0.014355, 0.001833, 0.014889, 0.000000, 0.950865, -9.437583, -19.579702, 51.938507, 0.011858, -0.033245, 2.073148

149504871.418174, 0.019853, -0.011606, 0.005192, 0.014889, 0.000000, 0.950865, -9.470377, -19.633688, 51.949512, 0.011884, -0.033045, 2.072819

149504871.419511, 0.018937, -0.012523, 0.004887, 0.029778, -0.015483, 0.904101, -9.476076, -19.676876, 51.981640, 0.011550, -0.033217, 2.073588

149504871.420867, 0.019242, -0.013134, -0.000611, 0.029778, -0.015483, 0.904101, -9.480635, -19.711428, 52.007339, 0.011233, -0.033395, 2.074258

149504871.422224, 0.016799, -0.015272, -0.002443, 0.029778, 0.000000, 0.982041, -9.484282, -19.739069, 52.027901, 0.011233, -0.033537, 2.074366

149504871.423570, 0.018326, -0.017715, 0.001222, 0.029778, 0.000000, 0.982041, -9.446127, -19.679548, 52.044350, 0.011250, -0.033707, 2.074517

149504871.424908, 0.017410, -0.012828, 0.002443, 0.029778, 0.000000, 0.982041, -9.415603, -19.631931, 52.057507, 0.011252, -0.033809, 2.074679

149504871.426259, 0.018631, -0.012523, 0.001833, 0.014889, -0.015483, 0.966453, -9.452792, -19.553022, 52.068035, 0.010953, -0.033606, 2.074656

149504871.427623, 0.018326, -0.012217, 0.002443, 0.014889, -0.015483, 0.966453, -9.482544, -19.489895, 52.076458, 0.010657, -0.033406, 2.074695

149504871.428968, 0.013439, -0.015272, 0.002138, 0.014889, -0.015483, 0.966453, -9.506346, -19.439392, 52.083195, 0.010299, -0.033248, 2.074772

149504871.430304, 0.014355, -0.017104, 0.000305, 0.029778, 0.000000, 0.966453, -9.463778, -19.541847, 51.995289, 0.010281, -0.033424, 2.074995

149504871.431679, 0.017715, -0.015882, 0.001527, 0.029778, 0.000000, 0.966453, -9.429724, -19.623812, 51.924965, 0.010313, -0.033587, 2.075166

149504871.433036, 0.023824, -0.013134, 0.008247, -0.000000, 0.000000, 0.982041, -9.464089, -19.628159, 51.938679, 0.010438, -0.033085, 2.074175

149504871.434378, 0.022297, -0.011912, 0.003360, 0.014889, 0.000000, 0.966453, -9.491582, -19.631638, 51.949650, 0.010525, -0.032887, 2.073809

149504871.435727, 0.020769, -0.014050, 0.003360, 0.014889, 0.000000, 0.966453, -9.513576, -19.634420, 51.958424, 0.010591, -0.032721, 2.073466

149504871.437090, 0.017104, -0.012523, -0.001222, 0.014889, 0.000000, 0.950865, -9.551707, -19.657055, 51.988766, 0.010611, -0.032545, 2.073100

149504871.438447, 0.015882, -0.018326, 0.001527, 0.044666, 0.000000, 0.966453, -9.582212, -19.675161, 52.013042, 0.010616, -0.033067, 2.074004

149504871.439785, 0.015577, -0.017715, 0.002443, 0.044666, 0.000000, 0.966453, -9.545008, -19.608015, 52.032463, 0.010612, -0.033566, 2.074905

149504871.441134, 0.020464, -0.014966, 0.006109, 0.014889, 0.000000, 0.982041, -9.515244, -19.554296, 52.048000, 0.010671, -0.033395, 2.074602

149504871.442508, 0.018021, -0.012828, 0.004581, 0.044666, -0.046450, 0.966453, -9.491432, -19.511322, 52.060429, 0.009753, -0.033885, 2.076815

149504871.443855, 0.016493, -0.014355, 0.003360, 0.044666, -0.046450, 0.966453, -9.472383, -19.476942, 52.070370, 0.008827, -0.034380, 2.078972

149504871.445191, 0.018937, -0.013439, 0.003360, 0.029778, 0.000000, 0.966453, -9.457145, -19.449438, 52.078323, 0.008897, -0.034485, 2.079189

149504871.446540, 0.014661, -0.014355, 0.002443, 0.029778, 0.000000, 0.966453, -9.403881, -19.447844, 52.061363, 0.008911, -0.034602, 2.079350

149504871.447903, 0.018937, -0.012523, 0.001833, 0.014889, 0.015516, 0.982041, -9.361270, -19.446568, 52.047794, 0.009310, -0.034384, 2.078482

149504871.449248, 0.016188, -0.012217, 0.003360, 0.029778, 0.000000, 0.950865, -9.327181, -19.445547, 52.036942, 0.009335, -0.034484, 2.078629

149504871.450584, 0.011606, -0.016188, 0.002443, 0.029778, 0.000000, 0.950865, -9.299910, -19.444731, 52.028259, 0.009300, -0.034633, 2.078740

149504871.451935, 0.018326, -0.015577, 0.001527, 0.014889, -0.015483, 0.950865, -9.278092, -19.444078, 52.021313, 0.009032, -0.034458, 2.078552

149504871.453290, 0.017410, -0.019548, 0.000916, 0.029778, 0.000000, 0.966453, -9.342784, -19.423147, 51.992432, 0.009082, -0.034644, 2.078666

149504871.454636, 0.020769, -0.018631, 0.002138, 0.029778, 0.000000, 0.966453, -9.394538, -19.406403, 51.969326, 0.009173, -0.034814, 2.078841

149504871.455974, 0.022297, -0.018326, 0.003665, 0.029778, 0.000000, 0.966453, -9.435941, -19.393007, 51.950844, 0.009280, -0.034976, 2.079070

149504871.457323, 0.018326, -0.013439, 0.001527, 0.029778, 0.000000, 0.966453, -9.386918, -19.565966, 51.982704, 0.009337, -0.035071, 2.079154

149504871.458689, 0.019242, -0.016188, 0.005192, 0.014889, 0.000000, 0.982041, -9.347699, -19.704332, 52.008190, 0.009412, -0.034887, 2.078557

149504871.460032, 0.017410, -0.016493, 0.002749, 0.029778, -0.015483, 0.950865, -9.316324, -19.712984, 52.028580, 0.009125, -0.035037, 2.078956

149504871.461370, 0.018021, -0.016799, 0.001833, 0.029778, -0.015483, 0.950865, -9.291224, -19.719906, 52.044891, 0.008852, -0.035187, 2.079312

149504871.462747, 0.015577, -0.015882, 0.000305, 0.014889, 0.000000, 0.950865, -9.271145, -19.725443, 52.057941, 0.008892, -0.035008, 2.078598

149504871.464105, 0.014050, -0.014966, 0.001527, 0.014889, 0.000000, 0.966453, -9.275618, -19.709465, 51.998409, 0.008907, -0.034812, 2.077914

149504871.465447, 0.018326, -0.016799, 0.002138, 0.014889, 0.000000, 0.966453, -9.279196, -19.696682, 51.950787, 0.008976, -0.034642, 2.077258

149504871.466793, 0.020769, -0.016799, 0.003054, 0.014889, -0.015483, 0.966453, -9.282058, -19.584415, 51.889362, 0.008751, -0.034476, 2.077041

149504871.468154, 0.017715, -0.014661, 0.003665, 0.029778, 0.000000, 0.950865, -9.284348, -19.494602, 51.840221, 0.008811, -0.034609, 2.077162

149504871.469511, 0.017715, -0.013744, 0.004276, 0.029778, 0.000000, 0.950865, -9.286180, -19.422750, 51.800911, 0.008868, -0.034727, 2.077321

149504871.470849, 0.020464, -0.018326, 0.002443, 0.029778, 0.000000, 0.966453, -9.287645, -19.365269, 51.769463, 0.008958, -0.034889, 2.077456

149504871.472198, 0.019853, -0.013744, 0.002138, 0.029778, 0.000000, 0.966453, -9.288817, -19.319284, 51.744305, 0.009040, -0.034990, 2.077606

149504871.473563, 0.016493, -0.014966, -0.001527, 0.029778, 0.000000, 0.966453, -9.371901, -19.282497, 51.770824, 0.009080, -0.035107, 2.077786

149504871.474908, 0.018631, -0.017104, 0.000916, 0.044666, 0.000000, 0.966453, -9.438368, -19.253067, 51.792042, 0.009149, -0.035558, 2.078667

149504871.476245, 0.021991, -0.015577, 0.004276, 0.044666, 0.000000, 0.966453, -9.491541, -19.229523, 51.809013, 0.009257, -0.035979, 2.079626

149504871.477598, 0.017410, -0.015577, 0.001222, 0.014889, 0.000000, 0.997629, -9.493007, -19.414768, 51.822594, 0.009307, -0.035763, 2.079193

149504871.478955, 0.015882, -0.015882, 0.001527, 0.014889, -0.015483, 0.950865, -9.494180, -19.562965, 51.833458, 0.009006, -0.035571, 2.079118

149504871.480299, 0.019242, -0.015882, 0.001833, 0.014889, -0.015483, 0.950865, -9.433509, -19.518257, 51.842148, 0.008754, -0.035381, 2.079018

149504871.481640, 0.019853, -0.017715, 0.001222, 0.014889, 0.000000, 0.966453, -9.384973, -19.482491, 51.849098, 0.008845, -0.035212, 2.078501

149504871.482995, 0.018937, -0.013134, 0.003054, 0.014889, 0.000000, 0.966453, -9.346143, -19.453878, 51.854660, 0.008923, -0.034988, 2.078001

149504871.484356, 0.018021, -0.013439, -0.072388, 0.059555, 0.000000, 0.919689, -9.376688, -19.471804, 51.859108, 0.009040, -0.035758, 2.078451

149504871.485699, 0.022907, -0.015882, 0.003360, 0.014889, 0.000000, 0.950865, -9.401125, -19.486145, 51.862667, 0.009164, -0.035564, 2.077996

149504871.487039, 0.020159, -0.017410, 0.004276, 0.014889, 0.000000, 0.950865, -9.420674, -19.456800, 51.888840, 0.009248, -0.035393, 2.077591

149504871.488400, 0.017410, -0.015577, 0.004276, 0.014889, 0.000000, 0.950865, -9.436314, -19.433325, 51.909779, 0.009298, -0.035204, 2.077218

149504871.489763, 0.015882, -0.018021, 0.001833, 0.014889, 0.000000, 0.950865, -9.448825, -19.414545, 51.926529, 0.009327, -0.035052, 2.076837

149504871.491101, 0.019853, -0.012828, 0.003971, 0.014889, 0.000000, 0.950865, -9.438297, -19.460747, 51.963253, 0.009403, -0.034831, 2.076464

149504871.492444, 0.019242, -0.015577, 0.004887, 0.014889, 0.000000, 0.966453, -9.429875, -19.497707, 51.992630, 0.009471, -0.034646, 2.076079

149504871.493819, 0.025962, -0.015272, 0.006109, 0.014889, 0.000000, 0.966453, -9.484747, -19.425236, 52.039455, 0.009632, -0.034466, 2.075794

149504871.495166, 0.011606, -0.011606, 0.004276, 0.014889, 0.000000, 0.966453, -9.528645, -19.367258, 52.076916, 0.009593, -0.034237, 2.075551

149504871.496503, 0.013744, -0.014966, 0.000305, 0.014889, -0.015483, 0.966453, -9.563763, -19.320875, 52.106884, 0.009260, -0.034058, 2.075688

149504871.497850, 0.018937, -0.011301, 0.002749, 0.014889, -0.015483, 0.966453, -9.489175, -19.365402, 52.107536, 0.009002, -0.033835, 2.075773

149504871.499207, 0.019548, -0.012523, 0.004276, 0.029778, 0.000000, 0.966453, -9.429505, -19.401024, 52.108059, 0.009080, -0.033943, 2.076069

149504871.500553, 0.019548, -0.015272, 0.003665, 0.029778, 0.000000, 0.966453, -9.463915, -19.368296, 52.085152, 0.009154, -0.034083, 2.076390

149504871.501892, 0.016493, -0.016493, -0.000916, 0.029778, 0.000000, 0.966453, -9.491443, -19.342113, 52.066826, 0.009187, -0.034235, 2.076676

149504871.503244, 0.020464, -0.016493, -0.000000, 0.014889, 0.000000, 0.966453, -9.513465, -19.321167, 52.052166, 0.009278, -0.034076, 2.076365

149504871.504611, 0.023824, -0.014661, -0.000305, 0.014889, 0.000000, 0.966453, -9.531082, -19.488085, 52.040440, 0.009415, -0.033897, 2.075999

149504871.505954, 0.021991, -0.015577, 0.002138, 0.014889, 0.000000, 0.966453, -9.545177, -19.621618, 52.031055, 0.009519, -0.033730, 2.075627

149504871.507292, 0.019853, -0.017410, 0.002749, 0.044666, 0.000000, 0.997629, -9.474306, -19.503956, 51.953579, 0.009592, -0.034183, 2.076437

149504871.508652, 0.019548, -0.015882, -0.000305, 0.044666, 0.000000, 0.997629, -9.417610, -19.409824, 51.891598, 0.009664, -0.034609, 2.077188

149504871.510012, 0.023518, -0.013439, 0.002443, 0.029778, 0.000000, 0.950865, -9.372253, -19.334520, 51.842010, 0.009783, -0.034724, 2.077429

149504871.511354, 0.017715, -0.017104, 0.003665, 0.029778, -0.015483, 0.966453, -9.418113, -19.519175, 51.848991, 0.009497, -0.034877, 2.078000

149504871.512699, 0.018631, -0.015577, 0.002138, 0.029778, -0.015483, 0.966453, -9.454801, -19.666899, 51.854576, 0.009231, -0.035007, 2.078500

149504871.514072, 0.018631, -0.011606, 0.004276, 0.029778, 0.000000, 0.950865, -9.443078, -19.621813, 51.835720, 0.009295, -0.035091, 2.078668

149504871.515420, 0.016493, -0.016493, 0.001527, 0.014889, 0.000000, 0.950865, -9.433701, -19.585743, 51.820633, 0.009331, -0.034918, 2.078169

149504871.516756, 0.018937, -0.013744, 0.002443, 0.014889, 0.000000, 0.950865, -9.426198, -19.556889, 51.808563, 0.009396, -0.034710, 2.077698

149504871.518104, 0.014661, -0.014355, 0.001527, 0.014889, 0.000000, 0.966453, -9.358587, -19.656254, 51.868877, 0.009407, -0.034511, 2.077118

149504871.519459, 0.016493, -0.017715, 0.000305, 0.014889, -0.015483, 0.950865, -9.304499, -19.735744, 51.917130, 0.009115, -0.034366, 2.076837

149504871.520806, 0.015272, -0.014966, -0.000916, 0.014889, -0.015483, 0.950865, -9.281764, -19.595257, 51.909084, 0.008811, -0.034186, 2.076588

149504871.522142, 0.018937, -0.014050, 0.002138, -0.000000, 0.000000, 0.966453, -9.263577, -19.482866, 51.902649, 0.008903, -0.033681, 2.075378

149504871.523493, 0.022602, -0.015882, 0.003971, -0.000000, 0.000000, 0.966453, -9.249026, -19.392954, 51.897499, 0.009042, -0.033213, 2.074239

149504871.524856, 0.018937, -0.017104, 0.003665, 0.014889, 0.000000, 0.904101, -9.319531, -19.382248, 52.009998, 0.009116, -0.033106, 2.073887

149504871.526200, 0.021991, -0.012828, 0.001527, 0.014889, 0.000000, 0.966453, -9.375936, -19.373684, 52.099998, 0.009226, -0.032919, 2.073520

149504871.527538, 0.019548, -0.014355, 0.000305, 0.014889, 0.000000, 0.966453, -9.400522, -19.366833, 52.078705, 0.009301, -0.032755, 2.073165

149504871.528897, 0.020769, -0.014966, 0.002138, 0.044666, -0.015483, 0.950865, -9.420192, -19.361351, 52.061668, 0.009075, -0.033255, 2.074542

149504871.530252, 0.018021, -0.015882, 0.001833, 0.029778, 0.000000, 0.950865, -9.435927, -19.356966, 52.048038, 0.009132, -0.033429, 2.074872

149504871.531595, 0.016799, -0.015882, 0.001222, 0.029778, 0.000000, 0.950865, -9.407443, -19.394274, 52.083782, 0.009169, -0.033597, 2.075150

149504871.532941, 0.021686, -0.012828, 0.003054, 0.014889, 0.000000, 0.966453, -9.384656, -19.424120, 52.112377, 0.009274, -0.033401, 2.074763

149504871.534316, 0.019548, -0.012523, 0.002443, 0.014889, 0.000000, 0.966453, -9.366426, -19.407181, 52.111931, 0.009355, -0.033208, 2.074368

149504871.535665, 0.021686, -0.015577, 0.003360, -0.000000, 0.000000, 0.950865, -9.351843, -19.393629, 52.111572, 0.009471, -0.032745, 2.073328

149504871.537004, 0.017104, -0.017410, 0.003971, 0.029778, 0.000000, 0.982041, -9.340176, -19.382788, 52.111286, 0.009504, -0.032927, 2.073585

149504871.538359, 0.018631, -0.012828, 0.003971, 0.029778, 0.000000, 0.982041, -9.310306, -19.414932, 52.087734, 0.009560, -0.033046, 2.073800

149504871.539718, 0.018937, -0.016799, 0.002138, 0.014889, 0.000000, 0.966453, -9.286409, -19.440647, 52.068893, 0.009624, -0.032915, 2.073341

149504871.541063, 0.018631, -0.012523, 0.001833, 0.014889, 0.000000, 0.982041, -9.246757, -19.440811, 52.077145, 0.009681, -0.032722, 2.072845

149504871.542401, 0.022297, -0.016493, 0.003054, 0.014889, 0.000000, 0.982041, -9.215034, -19.440943, 52.083744, 0.009783, -0.032585, 2.072348

149504871.543754, 0.019242, -0.018021, 0.004887, 0.029778, 0.000000, 0.950865, -9.189655, -19.441048, 52.089024, 0.009840, -0.032800, 2.072533

149504871.545118, 0.015577, -0.014355, 0.003971, 0.029778, 0.000000, 0.982041, -9.230962, -19.379908, 52.069923, 0.009850, -0.032943, 2.072722

149504871.546462, 0.014355, -0.019242, 0.005192, 0.029778, 0.000000, 0.982041, -9.264008, -19.330996, 52.054646, 0.009840, -0.033146, 2.072969

149504871.547806, 0.024129, -0.016799, 0.004276, 0.014889, 0.000000, 0.982041, -9.331516, -19.332682, 52.065746, 0.009963, -0.033006, 2.072626

149504871.549175, 0.019242, -0.013744, 0.001222, 0.014889, 0.000000, 0.982041, -9.385524, -19.334030, 52.074627, 0.010024, -0.032832, 2.072294

149504871.550532, 0.021075, -0.014966, 0.006109, 0.014889, 0.000000, 0.982041, -9.428729, -19.335110, 52.081730, 0.010104, -0.032677, 2.072067

149504871.551874, 0.020159, -0.012828, 0.005192, 0.014889, 0.000000, 0.982041, -9.422221, -19.458422, 52.064091, 0.010168, -0.032494, 2.071775

149504871.553219, 0.021991, -0.011912, 0.005192, 0.014889, 0.000000, 0.982041, -9.417015, -19.557072, 52.049976, 0.010256, -0.032303, 2.071443

149504871.554584, 0.018326, -0.018631, 0.002749, -0.000000, -0.015483, 0.950865, -9.392313, -19.493134, 52.062008, 0.009980, -0.031898, 2.070806

149504871.555937, 0.016799, -0.014966, 0.001833, -0.000000, 0.000000, 0.950865, -9.372552, -19.441984, 52.071636, 0.010018, -0.031454, 2.069815

149504871.557273, 0.017715, -0.014661, 0.001527, -0.000000, 0.000000, 0.950865, -9.356743, -19.401064, 52.079338, 0.010065, -0.031012, 2.068843

149504871.558632, 0.019853, -0.014966, 0.002138, 0.014889, 0.000000, 0.982041, -9.364632, -19.511185, 52.062176, 0.010130, -0.030893, 2.068506

149504871.559988, 0.016799, -0.010996, 0.003054, 0.014889, 0.000000, 0.982041, -9.370943, -19.599281, 52.048447, 0.010152, -0.030723, 2.068157

149504871.561334, 0.015272, -0.014966, 0.003665, 0.014889, 0.000000, 0.982041, -9.417065, -19.547310, 52.014137, 0.010152, -0.030608, 2.067880

149504871.562672, 0.019548, -0.017715, 0.005192, 0.014889, 0.000000, 0.950865, -9.453962, -19.505733, 51.986691, 0.010205, -0.030541, 2.067696

149504871.564023, 0.016493, -0.017104, 0.002138, 0.014889, 0.000000, 0.950865, -9.483480, -19.472471, 51.964733, 0.010220, -0.030469, 2.067513

149504871.565389, 0.015577, -0.016493, 0.002749, 0.029778, 0.000000, 0.966453, -9.486559, -19.568312, 51.993816, 0.010223, -0.030699, 2.067920

149504871.566733, 0.021380, -0.012523, 0.005498, -0.000000, 0.000000, 0.950865, -9.489021, -19.644983, 52.017082, 0.010312, -0.030246, 2.067050

149504871.568071, 0.011912, -0.013744, 0.001833, -0.000000, 0.000000, 0.950865, -9.429382, -19.604280, 52.012371, 0.010276, -0.029816, 2.066117

149504871.569432, 0.016188, -0.012523, 0.002443, -0.000000, -0.015483, 0.966453, -9.381671, -19.571718, 52.008602, 0.009974, -0.029379, 2.065533

149504871.570792, 0.013134, -0.014050, 0.002749, 0.074444, -0.015483, 0.966453, -9.343502, -19.545668, 52.005589, 0.009687, -0.030547, 2.068042

149504871.572134, 0.017410, -0.014966, 0.003665, 0.074444, -0.015483, 0.966453, -9.354039, -19.545235, 52.003178, 0.009457, -0.031701, 2.070519

149504871.573475, 0.017715, -0.014355, 0.000916, 0.014889, -0.015483, 0.966453, -9.362469, -19.544889, 52.001247, 0.009180, -0.031563, 2.070495

149504871.574838, 0.017410, -0.015272, 0.002749, 0.014889, -0.015483, 0.966453, -9.369213, -19.462980, 51.953056, 0.008907, -0.031444, 2.070537

149504871.576198, 0.016493, -0.017410, 0.003971, 0.014889, -0.015483, 0.935277, -9.374608, -19.397453, 51.914501, 0.008616, -0.031367, 2.070662

149504871.577536, 0.018326, -0.008552, 0.003665, 0.014889, -0.015483, 0.950865, -9.378924, -19.345032, 51.883659, 0.008356, -0.031167, 2.070790

149504871.578882, 0.017715, -0.010079, 0.002749, 0.014889, -0.015483, 0.950865, -9.382378, -19.486767, 51.882309, 0.008096, -0.030990, 2.070842

149504871.580248, 0.021380, -0.014355, 0.004276, 0.029778, 0.000000, 0.966453, -9.385139, -19.600155, 51.881229, 0.008218, -0.031180, 2.071109

149504871.581595, 0.020159, -0.014661, 0.000916, 0.029778, 0.000000, 0.966453, -9.407886, -19.527601, 51.950336, 0.008319, -0.031367, 2.071376

149504871.582931, 0.019548, -0.015577, -0.000916, 0.029778, 0.000000, 0.966453, -9.426083, -19.469559, 52.005623, 0.008409, -0.031560, 2.071654

149504871.584279, 0.021380, -0.013439, 0.000611, 0.014889, -0.015483, 0.950865, -9.440640, -19.423124, 52.049850, 0.008197, -0.031421, 2.071740

149504871.585638, 0.022602, -0.016799, 0.002138, 0.014889, -0.015483, 0.950865, -9.411214, -19.528833, 51.991940, 0.008008, -0.031330, 2.071771

149504871.586984, 0.019242, -0.015272, 0.001527, 0.014889, 0.000000, 0.935277, -9.387672, -19.613401, 51.945610, 0.008104, -0.031221, 2.071373

149504871.588321, 0.022297, -0.016799, 0.001527, 0.014889, 0.015516, 0.966453, -9.430449, -19.517790, 51.908546, 0.008560, -0.031128, 2.070691

149504871.589671, 0.013134, -0.014661, 0.002138, 0.014889, 0.015516, 0.966453, -9.464669, -19.441301, 51.878895, 0.008888, -0.031010, 2.070087

149504871.591033, 0.018631, -0.018326, 0.002749, 0.014889, 0.000000, 0.950865, -9.492045, -19.380110, 51.855175, 0.008959, -0.030947, 2.069910

149504871.592380, 0.021380, -0.013134, 0.004887, 0.014889, 0.000000, 0.982041, -9.493410, -19.433197, 51.859520, 0.009062, -0.030804, 2.069721

149504871.593725, 0.018631, -0.014966, 0.002749, 0.014889, 0.000000, 0.982041, -9.494502, -19.475668, 51.862999, 0.009128, -0.030687, 2.069492

149504871.595081, 0.020464, -0.012523, 0.002443, 0.044666, 0.000000, 0.966453, -9.515912, -19.448420, 51.865780, 0.009224, -0.031169, 2.070530

149504871.596433, 0.023213, -0.014050, 0.002749, 0.029778, 0.000000, 0.950865, -9.533040, -19.426620, 51.868004, 0.009346, -0.031360, 2.070992

149504871.597777, 0.016799, -0.011606, 0.001222, 0.029778, 0.000000, 0.950865, -9.546742, -19.409182, 51.869785, 0.009380, -0.031514, 2.071444

149504871.599122, 0.019242, -0.009468, 0.003971, 0.014889, 0.000000, 0.966453, -9.496096, -19.354414, 51.917858, 0.009446, -0.031316, 2.071260

149504871.600488, 0.024435, -0.012217, 0.005498, 0.014889, 0.000000, 0.966453, -9.455578, -19.310600, 51.956314, 0.009584, -0.031161, 2.071088

149504871.601843, 0.019853, -0.011606, 0.006414, 0.029778, 0.000000, 0.982041, -9.484773, -19.275549, 51.940434, 0.009653, -0.031301, 2.071580

149504871.603179, 0.020464, -0.012828, -0.000305, 0.029778, 0.000000, 0.982041, -9.508128, -19.247509, 51.927727, 0.009728, -0.031451, 2.072004

149504871.604533, 0.019548, -0.010690, 0.001833, 0.029778, 0.000000, 0.982041, -9.526813, -19.225077, 51.917564, 0.009792, -0.031573, 2.072472

149504871.605889, 0.021075, -0.014050, 0.003054, 0.029778, 0.000000, 0.966453, -9.521224, -19.288763, 51.886108, 0.009875, -0.031747, 2.072932

149504871.607234, 0.025656, -0.017104, 0.007941, 0.014889, 0.000000, 0.982041, -9.516753, -19.339712, 51.860943, 0.010014, -0.031640, 2.072782

149504871.608570, 0.016799, -0.015272, 0.003360, 0.014889, 0.000000, 0.982041, -9.513177, -19.319246, 51.864136, 0.010035, -0.031510, 2.072581

149504871.609923, 0.018021, -0.014661, 0.004276, -0.000000, 0.000000, 0.966453, -9.510316, -19.302874, 51.866692, 0.010085, -0.031070, 2.071758

149504871.611288, 0.017104, -0.011606, 0.003971, -0.000000, 0.000000, 0.966453, -9.508027, -19.289776, 51.868736, 0.010123, -0.030600, 2.070952

149504871.612634, 0.014355, -0.014966, 0.002443, 0.029778, 0.015516, 0.982041, -9.485660, -19.381338, 51.893696, 0.010425, -0.030792, 2.070987

149504871.613970, 0.016493, -0.017715, 0.002138, 0.014889, 0.000000, 0.966453, -9.467766, -19.454588, 51.913662, 0.010434, -0.030715, 2.070722

149504871.615334, 0.017104, -0.013439, -0.000000, 0.014889, 0.000000, 0.966453, -9.494523, -19.451963, 51.952957, 0.010456, -0.030588, 2.070458

149504871.616690, 0.016799, -0.015577, 0.002138, 0.014889, 0.000000, 0.982041, -9.515929, -19.449863, 51.984394, 0.010471, -0.030485, 2.070235

149504871.618033, 0.017715, -0.012828, 0.001527, 0.029778, 0.000000, 0.950865, -9.533053, -19.448185, 52.009544, 0.010494, -0.030673, 2.070680

149504871.619375, 0.018937, -0.013134, 0.001833, 0.029778, 0.000000, 0.950865, -9.567289, -19.385616, 52.006340, 0.010533, -0.030861, 2.071175

149504871.620738, 0.021380, -0.012523, 0.001833, 0.014889, 0.000000, 0.966453, -9.594679, -19.335562, 52.003777, 0.010608, -0.030718, 2.071057

149504871.622094, 0.016799, -0.017104, 0.000611, 0.014889, 0.000000, 0.982041, -9.513908, -19.336334, 52.048374, 0.010621, -0.030634, 2.070850

149504871.623430, 0.020159, -0.014966, 0.000611, 0.014889, 0.000000, 0.982041, -9.449292, -19.336952, 52.084053, 0.010674, -0.030519, 2.070594

149504871.624779, 0.024740, -0.017410, 0.002443, 0.029778, 0.000000, 0.982041, -9.397599, -19.337446, 52.112595, 0.010787, -0.030747, 2.070951

149504871.626140, 0.017715, -0.014661, 0.001222, 0.029778, 0.000000, 0.982041, -9.376781, -19.317434, 52.135429, 0.010807, -0.030936, 2.071277

149504871.627494, 0.018326, -0.014355, 0.000305, 0.014889, 0.000000, 0.950865, -9.360126, -19.301424, 52.153694, 0.010836, -0.030819, 2.070975

149504871.628831, 0.014966, -0.014966, 0.000611, 0.014889, 0.000000, 0.966453, -9.326265, -19.288616, 52.144985, 0.010818, -0.030705, 2.070649

149504871.630185, 0.015272, -0.014661, -0.000000, 0.014889, 0.000000, 0.966453, -9.299177, -19.278370, 52.138016, 0.010807, -0.030592, 2.070304

149504871.631548, 0.019242, -0.017410, 0.001833, 0.029778, 0.000000, 0.950865, -9.277507, -19.270172, 52.132442, 0.010847, -0.030841, 2.070635

149504871.632892, 0.011912, -0.017410, 0.003360, 0.029778, 0.000000, 0.966453, -9.301243, -19.304432, 52.127983, 0.010786, -0.031071, 2.070962

149504871.634229, 0.015272, -0.011606, 0.002749, 0.029778, 0.000000, 0.966453, -9.320232, -19.331839, 52.124416, 0.010769, -0.031220, 2.071277

149504871.635603, 0.018937, -0.010690, 0.005498, 0.014889, -0.030966, 0.950865, -9.335423, -19.333357, 52.074913, 0.010152, -0.031063, 2.071803

149504871.636960, 0.018326, -0.018631, 0.003054, 0.014889, -0.030966, 0.950865, -9.347576, -19.334570, 52.035313, 0.009537, -0.031012, 2.072292

149504871.638303, 0.019548, -0.015882, 0.003360, 0.014889, -0.015483, 0.982041, -9.357299, -19.335541, 52.003632, 0.009287, -0.030904, 2.072337

149504871.639651, 0.022602, -0.015882, 0.005498, 0.029778, 0.000000, 0.950865, -9.365077, -19.336317, 51.954964, 0.009398, -0.031124, 2.072711

149504871.641015, 0.019548, -0.015882, 0.003665, 0.029778, 0.000000, 0.950865, -9.371300, -19.336939, 51.916027, 0.009470, -0.031342, 2.073057

149504871.642369, 0.018021, -0.016799, 0.001527, 0.014889, 0.000000, 0.966453, -9.355742, -19.317028, 51.978172, 0.009522, -0.031245, 2.072712

149504871.643707, 0.020769, -0.012523, 0.001527, 0.014889, 0.000000, 0.982041, -9.343294, -19.301100, 52.027889, 0.009606, -0.031086, 2.072361

149504871.645057, 0.016799, -0.011606, 0.003054, 0.014889, 0.000000, 0.982041, -9.333337, -19.288357, 52.067665, 0.009638, -0.030919, 2.072035

149504871.646416, 0.016799, -0.014355, 0.003971, 0.014889, 0.000000, 0.966453, -9.304834, -19.359795, 52.029514, 0.009670, -0.030799, 2.071684

149504871.647762, 0.018326, -0.014966, 0.000916, 0.014889, -0.015483, 0.935277, -9.282033, -19.416946, 51.998993, 0.009388, -0.030698, 2.071662

149504871.649099, 0.016188, -0.015272, 0.003054, 0.014889, -0.015483, 0.935277, -9.325400, -19.381035, 51.927929, 0.009079, -0.030603, 2.071718

149504871.650451, 0.021075, -0.014050, 0.001527, 0.014889, 0.000000, 0.966453, -9.360094, -19.352304, 51.871075, 0.009179, -0.030484, 2.071387

149504871.651818, 0.018021, -0.016493, 0.000611, 0.014889, 0.000000, 0.966453, -9.387850, -19.329321, 51.825592, 0.009239, -0.030402, 2.071082

149504871.653162, 0.018631, -0.013744, 0.003665, 0.044666, -0.015483, 0.966453, -9.368981, -19.433382, 51.882504, 0.008988, -0.030915, 2.072401

149504871.654499, 0.022602, -0.012523, 0.001222, 0.029778, -0.015483, 0.950865, -9.353887, -19.516632, 51.928032, 0.008779, -0.031095, 2.073020

149504871.655869, 0.015577, -0.014050, -0.001527, 0.029778, -0.015483, 0.950865, -9.444492, -19.460783, 52.011101, 0.008487, -0.031296, 2.073691

149504871.657227, 0.016799, -0.014355, -0.001222, 0.014889, 0.000000, 0.966453, -9.516977, -19.416103, 52.077557, 0.008544, -0.031168, 2.073385

149504871.658570, 0.016493, -0.013439, 0.002749, -0.000000, 0.000000, 0.982041, -9.574965, -19.380360, 52.130722, 0.008602, -0.030718, 2.072548

149504871.659913, 0.016799, -0.010079, 0.002443, -0.000000, 0.000000, 0.982041, -9.518674, -19.474215, 52.103283, 0.008665, -0.030233, 2.071639

149504871.661277, 0.020159, -0.011606, 0.002443, 0.029778, 0.000000, 0.966453, -9.473640, -19.549297, 52.081333, 0.008760, -0.030401, 2.071961

149504871.662634, 0.024129, -0.015272, 0.004581, 0.029778, 0.000000, 0.966453, -9.437613, -19.527731, 52.040447, 0.008904, -0.030614, 2.072284

149504871.663971, 0.017104, -0.012828, 0.003360, 0.029778, 0.000000, 0.935277, -9.408792, -19.510479, 52.007740, 0.008949, -0.030807, 2.072610

149504871.665321, 0.018631, -0.013744, 0.001527, 0.029778, 0.000000, 0.950865, -9.385736, -19.496677, 51.981575, 0.009016, -0.031001, 2.072872

149504871.666682, 0.014355, -0.014355, 0.001527, 0.029778, 0.000000, 0.950865, -9.346753, -19.506042, 51.983967, 0.009027, -0.031199, 2.073095

149504871.668028, 0.016493, -0.016799, 0.000611, 0.014889, 0.000000, 0.966453, -9.315568, -19.513535, 51.985878, 0.009068, -0.031103, 2.072621

149504871.669365, 0.014966, -0.017104, 0.001833, 0.014889, 0.000000, 0.950865, -9.311155, -19.458305, 51.964085, 0.009085, -0.031016, 2.072202

149504871.670716, 0.018631, -0.014355, 0.005192, 0.014889, 0.000000, 0.950865, -9.307626, -19.414122, 51.946648, 0.009151, -0.030898, 2.071853

149504871.672072, 0.014661, -0.016493, 0.002749, 0.029778, 0.000000, 0.935277, -9.304802, -19.378775, 51.932701, 0.009162, -0.031137, 2.072154

149504871.673417, 0.020769, -0.014050, 0.001833, 0.014889, 0.000000, 0.997629, -9.323079, -19.493355, 51.968189, 0.009256, -0.030996, 2.071710

149504871.674755, 0.018937, -0.013744, 0.001527, 0.014889, 0.000000, 0.997629, -9.337701, -19.585018, 51.996578, 0.009322, -0.030853, 2.071244

149504871.676109, 0.015577, -0.012217, 0.002138, 0.044666, 0.000000, 0.966453, -9.369935, -19.535900, 51.995968, 0.009348, -0.031326, 2.072098

149504871.677470, 0.021686, -0.011912, 0.003054, 0.044666, 0.000000, 0.966453, -9.395722, -19.496605, 51.995480, 0.009455, -0.031786, 2.072985

149504871.678815, 0.020159, -0.012217, 0.003054, -0.000000, 0.000000, 0.982041, -9.416352, -19.465170, 51.995090, 0.009547, -0.031307, 2.071993

