Using settings file RTIMULib.ini
IMU Name: L3GD20 + LSM303DLHC
IMU Init Succeeded
Recommended Poll Interval: 4mS

Time, gyroX, gyroY, gyroZ, accelX, accelY, accelZ, magX, magY, magZ, phi, theta, psi

149503719.289384, 0.019853, -0.014355, 0.004276, 0.014889, 0.077582, 0.966453, 2.741441, -3.602579, 10.212113, 0.080103, -0.015355, 1.039712

149503719.290362, 0.022602, -0.016493, 0.004276, 0.014889, 0.077582, 0.966453, 4.934595, -6.484643, 18.381804, 0.080324, -0.015519, 1.039741

149503719.291383, 0.015882, -0.015272, 0.004581, 0.014889, 0.062065, 0.982041, 6.689117, -8.810701, 24.894232, 0.080138, -0.015664, 1.039442

149503719.292442, 0.021991, -0.018326, 0.004276, 0.029778, 0.062065, 0.982041, 8.092735, -10.671549, 30.104174, 0.080027, -0.016151, 1.039677

149503719.293462, 0.015882, -0.017715, 0.000611, 0.029778, 0.062065, 0.982041, 9.215630, -12.160227, 34.272129, 0.079849, -0.016612, 1.039875

149503719.294481, 0.022297, -0.015272, 0.001222, 0.014889, 0.062065, 0.982041, 10.093409, -13.412394, 37.676464, 0.079737, -0.016733, 1.039612

149503719.295545, 0.022907, -0.018937, -0.000000, 0.014889, 0.062065, 0.982041, 10.795632, -14.414126, 40.399933, 0.079644, -0.016896, 1.039379

149503719.296563, 0.025045, -0.021075, 0.006720, 0.014889, 0.062065, 0.950865, 11.357411, -15.215513, 42.578709, 0.079604, -0.017085, 1.039303

149503719.297583, 0.019853, -0.013439, 0.002443, 0.014889, 0.062065, 0.950865, 11.806834, -15.856623, 44.321728, 0.079514, -0.017190, 1.039214

149503719.298600, 0.026267, -0.015272, 0.002443, 0.044666, 0.124131, 0.997629, 12.145836, -16.328693, 45.692818, 0.080685, -0.017847, 1.041124

149503719.299666, 0.019242, -0.016799, 0.001833, 0.044666, 0.124131, 0.997629, 12.417037, -16.706350, 46.789692, 0.081772, -0.018515, 1.042998

149503719.300684, 0.014050, -0.016493, 0.002138, 0.029778, 0.077582, 0.966453, 12.633998, -17.008476, 47.667191, 0.081882, -0.018925, 1.043661

149503719.301701, 0.014966, -0.015882, 0.003971, 0.029778, 0.077582, 0.966453, 12.807567, -17.229769, 48.345867, 0.081999, -0.019322, 1.044326

149503719.302723, 0.020464, -0.018326, 0.003360, 0.029778, 0.077582, 0.982041, 12.946422, -17.406803, 48.888805, 0.082143, -0.019727, 1.044927

149503719.303789, 0.026267, -0.017715, 0.005803, 0.029778, 0.077582, 0.982041, 13.057506, -17.548429, 49.323158, 0.082354, -0.020127, 1.045541

149503719.304808, 0.024129, -0.012523, 0.003054, 0.029778, 0.062065, 0.966453, 13.166909, -17.600506, 49.670639, 0.082231, -0.020469, 1.045815

149503719.305824, 0.018326, -0.013134, 0.004276, 0.029778, 0.062065, 0.966453, 13.254433, -17.642168, 49.948624, 0.082052, -0.020810, 1.046063

149503719.306841, 0.018937, -0.015882, 0.006109, 0.029778, 0.077582, 0.966453, 13.324451, -17.675497, 50.171013, 0.082203, -0.021171, 1.046599

149503719.307906, 0.022907, -0.016493, 0.004581, 0.029778, 0.077582, 0.966453, 13.380466, -17.702160, 50.348923, 0.082402, -0.021537, 1.047090

149503719.308925, 0.023824, -0.018937, 0.002749, 0.029778, 0.062065, 0.950865, 13.425279, -17.723492, 50.491253, 0.082296, -0.021923, 1.047267

149503719.309942, 0.023213, -0.015577, 0.002443, 0.029778, 0.062065, 0.950865, 13.461128, -17.740557, 50.605114, 0.082186, -0.022268, 1.047426

149503719.311007, 0.021686, -0.014661, 0.001222, 0.044666, 0.077582, 0.966453, 13.489808, -17.754208, 50.696205, 0.082381, -0.022898, 1.048372

149503719.312024, 0.020464, -0.016493, 0.004276, 0.044666, 0.077582, 0.966453, 13.553824, -17.867170, 50.722431, 0.082549, -0.023529, 1.049326

149503719.313040, 0.018326, -0.015272, 0.003360, 0.014889, 0.077582, 0.950865, 13.605038, -17.957541, 50.743412, 0.082709, -0.023525, 1.049222

149503719.314057, 0.024435, -0.017104, 0.003665, 0.014889, 0.077582, 0.950865, 13.646008, -18.029837, 50.760197, 0.082927, -0.023539, 1.049123

149503719.315122, 0.026267, -0.018326, 0.003054, 0.059555, 0.077582, 0.966453, 13.637712, -18.087673, 50.843594, 0.083171, -0.024491, 1.050630

149503719.316138, 0.022297, -0.014355, 0.003360, 0.059555, 0.077582, 0.966453, 13.631074, -18.133942, 50.910313, 0.083358, -0.025375, 1.052138

149503719.317154, 0.020159, -0.017715, 0.002443, 0.014889, 0.093098, 0.950865, 13.625764, -18.170958, 50.963688, 0.083843, -0.025356, 1.052341

149503719.318216, 0.023518, -0.018937, 0.003360, 0.014889, 0.093098, 0.950865, 13.600980, -18.159754, 50.959740, 0.084361, -0.025359, 1.052560

149503719.319234, 0.015882, -0.013134, 0.003054, 0.029778, 0.062065, 0.950865, 13.581153, -18.150791, 50.956581, 0.084136, -0.025611, 1.052718

149503719.320255, 0.023213, -0.016493, 0.007330, 0.029778, 0.062065, 0.950865, 13.565291, -18.143620, 50.954052, 0.083988, -0.025895, 1.052921

149503719.321275, 0.026573, -0.018631, 0.005803, 0.029778, 0.062065, 0.950865, 13.552602, -18.137882, 50.952030, 0.083877, -0.026194, 1.053109

149503719.322339, 0.018937, -0.017104, 0.001527, 0.014889, 0.077582, 0.997629, 13.562986, -18.133293, 50.973736, 0.083950, -0.026146, 1.052920

149503719.323358, 0.014050, -0.014966, 0.003360, 0.014889, 0.077582, 0.997629, 13.571294, -18.129622, 50.991100, 0.083964, -0.026072, 1.052748

149503719.324375, 0.024129, -0.015577, 0.008247, 0.014889, 0.077582, 0.966453, 13.577940, -18.126684, 51.004993, 0.084126, -0.026019, 1.052686

149503719.325438, 0.025351, -0.015882, 0.005803, 0.014889, 0.077582, 0.966453, 13.521648, -18.083519, 50.946136, 0.084310, -0.025975, 1.052622

149503719.326456, 0.025351, -0.015882, 0.003360, 0.014889, 0.077582, 0.950865, 13.476615, -18.048986, 50.899052, 0.084504, -0.025929, 1.052581

149503719.327473, 0.016493, -0.018021, 0.002443, 0.014889, 0.077582, 0.950865, 13.440588, -18.021360, 50.861382, 0.084607, -0.025904, 1.052542

149503719.328495, 0.017410, -0.015577, 0.003360, 0.044666, 0.062065, 0.966453, 13.473375, -18.101299, 50.924541, 0.084379, -0.026473, 1.053274

149503719.329560, 0.022602, -0.014966, 0.003054, 0.044666, 0.062065, 0.966453, 13.499605, -18.165251, 50.975071, 0.084216, -0.027031, 1.053997

149503719.330579, 0.023213, -0.011606, 0.006109, 0.044666, 0.077582, 0.966453, 13.520589, -18.216412, 51.015495, 0.084373, -0.027533, 1.055028

149503719.331596, 0.025962, -0.010385, 0.004276, 0.044666, 0.077582, 0.966453, 13.537376, -18.175709, 51.047832, 0.084554, -0.028012, 1.055998

149503719.332614, 0.018631, -0.013439, 0.003360, 0.014889, 0.062065, 0.966453, 13.591879, -18.143147, 51.073704, 0.084334, -0.027891, 1.055512

149503719.333682, 0.021991, -0.013134, 0.003665, 0.014889, 0.062065, 0.966453, 13.635481, -18.117096, 51.094398, 0.084163, -0.027775, 1.055000

149503719.334699, 0.021991, -0.012828, 0.002443, 0.029778, 0.077582, 0.966453, 13.670362, -18.096256, 51.110954, 0.084301, -0.027964, 1.055290

149503719.335718, 0.019853, -0.013439, 0.002138, 0.029778, 0.077582, 0.966453, 13.636659, -18.099993, 51.054230, 0.084415, -0.028155, 1.055594

149503719.336739, 0.017104, -0.014050, 0.002138, 0.014889, 0.077582, 0.966453, 13.609695, -18.102982, 51.008850, 0.084501, -0.028040, 1.055385

149503719.337803, 0.021380, -0.016493, 0.003054, 0.014889, 0.077582, 0.966453, 13.588125, -18.105373, 50.972546, 0.084637, -0.027960, 1.055202

149503719.338820, 0.016799, -0.016188, 0.001222, 0.029778, 0.093098, 0.997629, 13.570868, -18.127693, 50.990150, 0.084973, -0.028155, 1.055745

149503719.339826, 0.021686, -0.014661, 0.000611, 0.029778, 0.093098, 0.997629, 13.557063, -18.145550, 51.004234, 0.085349, -0.028328, 1.056290

149503719.340858, 0.023824, -0.015272, 0.003054, 0.014889, 0.077582, 0.966453, 13.546020, -18.159836, 51.015499, 0.085486, -0.028225, 1.056141

149503719.341926, 0.023213, -0.016188, 0.006109, 0.014889, 0.077582, 0.966453, 13.557721, -18.089632, 50.977863, 0.085621, -0.028141, 1.055990

149503719.342945, 0.020769, -0.014355, 0.004581, 0.044666, 0.077582, 0.966453, 13.567082, -18.033468, 50.947758, 0.085724, -0.028648, 1.056860

149503719.343961, 0.018937, -0.017104, 0.002749, 0.044666, 0.077582, 0.966453, 13.574571, -17.988537, 50.923672, 0.085807, -0.029170, 1.057670

149503719.345000, 0.021075, -0.019242, 0.003971, 0.014889, 0.062065, 0.950865, 13.580562, -17.952593, 50.904404, 0.085612, -0.029092, 1.057104

149503719.346013, 0.017410, -0.014050, 0.001222, 0.014889, 0.062065, 0.950865, 13.564818, -17.964653, 50.912312, 0.085380, -0.028957, 1.056543

149503719.347077, 0.020464, -0.014661, 0.003360, 0.029778, 0.077582, 0.966453, 13.552223, -17.974302, 50.918636, 0.085488, -0.029148, 1.056837

149503719.348089, 0.016188, -0.017410, 0.005192, 0.029778, 0.077582, 0.966453, 13.542148, -17.982021, 50.923698, 0.085540, -0.029356, 1.057150

149503719.349142, 0.019548, -0.014661, 0.003360, 0.029778, 0.093098, 0.966453, 13.575160, -18.049421, 50.951073, 0.085951, -0.029533, 1.057728

149503719.350154, 0.014355, -0.015577, 0.003665, 0.029778, 0.093098, 0.966453, 13.601569, -18.103340, 50.972973, 0.086294, -0.029710, 1.058298

149503719.351165, 0.027489, -0.019242, 0.003665, 0.029778, 0.093098, 0.966453, 13.622697, -18.146475, 50.990490, 0.086761, -0.029920, 1.058855

149503719.352217, 0.018937, -0.015882, 0.001527, 0.059555, 0.077582, 0.966453, 13.598526, -18.119759, 50.981182, 0.086844, -0.030717, 1.060202

149503719.353273, 0.021686, -0.015882, 0.002749, 0.059555, 0.077582, 0.966453, 13.579189, -18.098387, 50.973736, 0.086953, -0.031500, 1.061541

149503719.354276, 0.017715, -0.015577, 0.002749, 0.029778, 0.077582, 0.966453, 13.563720, -18.081289, 50.967777, 0.086990, -0.031640, 1.061762

149503719.355326, 0.018631, -0.014661, 0.003054, 0.029778, 0.077582, 0.966453, 13.551345, -18.128836, 50.963009, 0.087043, -0.031775, 1.062010

149503719.356328, 0.017104, -0.012828, 0.005192, 0.014889, 0.077582, 0.950865, 13.541445, -18.166872, 50.959194, 0.087099, -0.031581, 1.061806

149503719.357379, 0.022602, -0.014050, 0.007330, 0.014889, 0.077582, 0.950865, 13.533525, -18.197302, 50.956142, 0.087218, -0.031412, 1.061646

149503719.358384, 0.022907, -0.013439, 0.006109, 0.029778, 0.077582, 0.966453, 13.527188, -18.221645, 50.953701, 0.087300, -0.031536, 1.061977

149503719.359433, 0.020769, -0.022602, 0.003665, 0.029778, 0.077582, 0.966453, 13.563192, -18.200304, 50.905102, 0.087369, -0.031755, 1.062235

149503719.360485, 0.020464, -0.020464, 0.003665, 0.029778, 0.093098, 0.966453, 13.591995, -18.183231, 50.866222, 0.087752, -0.031944, 1.062739

149503719.361490, 0.019548, -0.018631, 0.002138, 0.029778, 0.093098, 0.966453, 13.615038, -18.169573, 50.835117, 0.088110, -0.032101, 1.063198

149503719.362540, 0.016799, -0.018326, 0.001833, 0.029778, 0.108614, 0.982041, 13.551327, -18.179054, 50.786911, 0.088723, -0.032244, 1.063904

149503719.363546, 0.023518, -0.019548, 0.004581, 0.029778, 0.108614, 0.982041, 13.500358, -18.186638, 50.748344, 0.089381, -0.032390, 1.064657

149503719.364599, 0.020159, -0.017104, 0.002138, 0.044666, 0.077582, 0.966453, 13.459582, -18.192705, 50.717491, 0.089409, -0.032844, 1.065447

149503719.365600, 0.020464, -0.014661, 0.002138, 0.044666, 0.077582, 0.966453, 13.488571, -18.177151, 50.762783, 0.089428, -0.033257, 1.066200

149503719.366650, 0.021075, -0.015272, 0.001527, 0.029778, 0.077582, 0.997629, 13.511762, -18.164707, 50.799015, 0.089408, -0.033345, 1.066296

149503719.367703, 0.015882, -0.015272, -0.000000, 0.029778, 0.077582, 0.997629, 13.530314, -18.154753, 50.827999, 0.089337, -0.033431, 1.066360

149503719.368704, 0.016799, -0.018021, -0.000000, 0.029778, 0.062065, 0.966453, 13.545156, -18.146790, 50.851189, 0.088998, -0.033551, 1.066190

149503719.369755, 0.021380, -0.018631, 0.003360, 0.029778, 0.062065, 0.966453, 13.598104, -18.262867, 50.893063, 0.088721, -0.033687, 1.066066

149503719.370757, 0.019548, -0.016188, 0.003360, 0.029778, 0.093098, 0.935277, 13.640461, -18.355730, 50.926563, 0.089121, -0.033805, 1.066612

149503719.371809, 0.026267, -0.020159, 0.004581, 0.029778, 0.093098, 0.935277, 13.674347, -18.430019, 50.953365, 0.089592, -0.033972, 1.067161

149503719.372815, 0.024129, -0.020464, 0.007025, 0.029778, 0.062065, 0.919689, 13.639846, -18.387411, 50.928158, 0.089385, -0.034145, 1.067189

149503719.373863, 0.022907, -0.012828, 0.004581, 0.029778, 0.062065, 0.919689, 13.612246, -18.353325, 50.907993, 0.089179, -0.034243, 1.067206

149503719.374913, 0.026267, -0.013744, 0.004887, 0.014889, 0.077582, 0.982041, 13.590165, -18.326056, 50.891861, 0.089244, -0.034004, 1.066857

149503719.375920, 0.021686, -0.015577, 0.003665, 0.014889, 0.077582, 0.982041, 13.551965, -18.243015, 50.972252, 0.089253, -0.033780, 1.066497

149503719.376969, 0.024435, -0.020464, 0.002749, 0.029778, 0.062065, 0.966453, 13.521404, -18.176582, 51.036564, 0.089002, -0.033930, 1.066387

149503719.377969, 0.022297, -0.017715, 0.004276, 0.029778, 0.062065, 0.966453, 13.496956, -18.123436, 51.088013, 0.088722, -0.034041, 1.066294

149503719.379016, 0.018326, -0.014355, 0.000916, 0.029778, 0.062065, 0.966453, 13.436324, -18.121737, 51.035877, 0.088419, -0.034122, 1.066213

149503719.380065, 0.014966, -0.012217, 0.000611, 0.014889, 0.062065, 0.982041, 13.387818, -18.120377, 50.994167, 0.088072, -0.033860, 1.065598

149503719.381065, 0.021380, -0.016188, 0.004887, 0.014889, 0.062065, 0.982041, 13.349014, -18.119289, 50.960800, 0.087787, -0.033641, 1.065059

149503719.382112, 0.027184, -0.018326, 0.004276, 0.014889, 0.093098, 0.919689, 13.317971, -18.118420, 50.934105, 0.088325, -0.033480, 1.065279

149503719.383130, 0.023518, -0.019853, 0.000305, 0.014889, 0.093098, 0.919689, 13.334209, -18.158539, 50.912750, 0.088810, -0.033329, 1.065456

149503719.384181, 0.017410, -0.015577, 0.000305, 0.029778, 0.093098, 0.935277, 13.347199, -18.190634, 50.895664, 0.089197, -0.033452, 1.066125

149503719.385183, 0.025656, -0.012828, 0.003971, 0.029778, 0.093098, 0.935277, 13.357592, -18.216311, 50.881996, 0.089647, -0.033542, 1.066820

149503719.386235, 0.024740, -0.017410, 0.003054, -0.000000, 0.108614, 0.950865, 13.386442, -18.257259, 50.871063, 0.090386, -0.033055, 1.066700

149503719.387284, 0.022297, -0.015882, 0.004581, -0.000000, 0.108614, 0.950865, 13.409522, -18.290020, 50.862316, 0.091084, -0.032562, 1.066597

149503719.388285, 0.016493, -0.015577, 0.001222, 0.044666, 0.093098, 0.950865, 13.427986, -18.316227, 50.855320, 0.091383, -0.032995, 1.067726

149503719.389334, 0.021075, -0.018326, 0.003360, 0.044666, 0.093098, 0.950865, 13.422221, -18.296377, 50.896370, 0.091731, -0.033457, 1.068851

149503719.390336, 0.024740, -0.017104, 0.002749, 0.044666, 0.062065, 0.950865, 13.417609, -18.280497, 50.929211, 0.091446, -0.033901, 1.069404

149503719.391385, 0.019853, -0.014050, 0.003054, 0.044666, 0.062065, 0.950865, 13.413919, -18.267792, 50.955482, 0.091128, -0.034314, 1.069952

149503719.392436, 0.026267, -0.017104, 0.002138, 0.029778, 0.062065, 0.935277, 13.493114, -18.237221, 50.976498, 0.090901, -0.034439, 1.069887

149503719.393438, 0.021991, -0.017410, 0.003054, 0.029778, 0.062065, 0.935277, 13.556469, -18.212765, 50.993313, 0.090624, -0.034557, 1.069777

149503719.394493, 0.021380, -0.018937, 0.002443, 0.044666, 0.062065, 0.966453, 13.607153, -18.193199, 51.006763, 0.090317, -0.034989, 1.070094

149503719.395496, 0.025045, -0.016799, 0.002749, 0.044666, 0.062065, 0.966453, 13.647700, -18.177547, 51.017525, 0.090040, -0.035381, 1.070375

149503719.396544, 0.019548, -0.013744, 0.002749, 0.029778, 0.077582, 0.966453, 13.639066, -18.124208, 51.026134, 0.090042, -0.035431, 1.070388

149503719.397547, 0.019242, -0.014661, 0.001833, 0.029778, 0.077582, 0.966453, 13.632157, -18.081537, 51.033020, 0.090032, -0.035481, 1.070380

149503719.398593, 0.021686, -0.016493, 0.002138, 0.029778, 0.062065, 0.950865, 13.626631, -18.047401, 51.038528, 0.089758, -0.035563, 1.070101

149503719.399639, 0.020769, -0.015272, 0.003971, 0.029778, 0.062065, 0.950865, 13.642746, -18.060909, 51.042934, 0.089479, -0.035633, 1.069842

149503719.400639, 0.021380, -0.012523, 0.005192, 0.014889, 0.093098, 0.966453, 13.655639, -18.071714, 51.046459, 0.089821, -0.035355, 1.069633

149503719.401686, 0.024740, -0.016799, 0.003360, 0.014889, 0.093098, 0.966453, 13.665953, -18.080359, 51.049282, 0.090201, -0.035130, 1.069402

149503719.402737, 0.017715, -0.015577, -0.001222, 0.059555, 0.031033, 0.935277, 13.694740, -18.066866, 51.004890, 0.089248, -0.035865, 1.069639

149503719.403741, 0.017715, -0.014966, 0.001222, 0.059555, 0.031033, 0.935277, 13.717771, -18.056072, 50.969379, 0.088305, -0.036573, 1.069873

149503719.404792, 0.019548, -0.017410, 0.001833, -0.000000, 0.062065, 0.919689, 13.736195, -18.047438, 50.940968, 0.088112, -0.036008, 1.068504

149503719.405826, 0.022297, -0.019242, 0.003665, -0.000000, 0.062065, 0.919689, 13.750934, -18.040529, 50.918240, 0.087947, -0.035471, 1.067166

149503719.406834, 0.025045, -0.015577, 0.005498, -0.000000, 0.077582, 0.966453, 13.701116, -18.075819, 50.970028, 0.088054, -0.034916, 1.066181

149503719.407886, 0.026878, -0.020464, 0.005498, 0.044666, 0.077582, 0.966453, 13.661262, -18.104050, 51.011459, 0.088174, -0.035356, 1.066814

149503719.408887, 0.026878, -0.021991, 0.008247, 0.044666, 0.077582, 0.966453, 13.629378, -18.126635, 51.044605, 0.088277, -0.035794, 1.067492

149503719.409933, 0.019242, -0.021380, 0.001833, 0.029778, 0.077582, 0.966453, 13.644944, -18.103888, 51.047798, 0.088312, -0.035913, 1.067536

149503719.410980, 0.018937, -0.019548, -0.000611, 0.029778, 0.077582, 0.966453, 13.657397, -18.085690, 51.050350, 0.088343, -0.036008, 1.067541

149503719.411978, 0.017410, -0.018937, 0.000611, 0.059555, 0.077582, 0.982041, 13.667359, -18.071131, 51.052395, 0.088336, -0.036685, 1.068583

149503719.413023, 0.020464, -0.016188, 0.001833, 0.059555, 0.077582, 0.982041, 13.695866, -18.141117, 51.100677, 0.088367, -0.037331, 1.069627

149503719.414069, 0.022602, -0.013439, 0.004581, 0.014889, 0.077582, 0.966453, 13.718671, -18.197105, 51.139305, 0.088438, -0.037031, 1.069132

149503719.415067, 0.024740, -0.013439, 0.003360, 0.014889, 0.077582, 0.966453, 13.736915, -18.241896, 51.170204, 0.088518, -0.036729, 1.068641

149503719.416113, 0.020769, -0.014661, 0.003971, 0.014889, 0.108614, 0.935277, 13.772046, -18.298136, 51.148277, 0.089271, -0.036462, 1.068804

149503719.417157, 0.016799, -0.018021, 0.005803, 0.014889, 0.108614, 0.935277, 13.800151, -18.343128, 51.130733, 0.089967, -0.036237, 1.068975

149503719.418171, 0.021075, -0.020769, 0.003665, 0.014889, 0.062065, 0.935277, 13.822635, -18.379122, 51.116699, 0.089709, -0.036029, 1.068228

149503719.419219, 0.023518, -0.019242, 0.004276, 0.014889, 0.062065, 0.935277, 13.840622, -18.407917, 51.105473, 0.089488, -0.035818, 1.067504

149503719.420265, 0.020159, -0.021991, 0.005498, 0.044666, 0.046549, 0.966453, 13.855012, -18.328913, 51.166462, 0.088866, -0.036253, 1.067470

149503719.421263, 0.023824, -0.021380, 0.007941, 0.044666, 0.046549, 0.966453, 13.866524, -18.265709, 51.215256, 0.088282, -0.036664, 1.067428

149503719.422310, 0.028100, -0.018937, 0.009468, 0.044666, 0.093098, 0.950865, 13.875733, -18.215147, 51.254288, 0.088758, -0.037063, 1.068303

149503719.423357, 0.027489, -0.019548, 0.003971, 0.044666, 0.093098, 0.950865, 13.903637, -18.174696, 51.238869, 0.089219, -0.037457, 1.069070

149503719.424354, 0.018326, -0.011301, 0.001527, 0.014889, 0.077582, 0.982041, 13.925960, -18.142336, 51.226532, 0.089198, -0.037117, 1.068368

149503719.425399, 0.014661, -0.013134, 0.001833, 0.014889, 0.077582, 0.982041, 13.943818, -18.116447, 51.216663, 0.089148, -0.036809, 1.067659

149503719.426448, 0.019242, -0.016188, 0.002443, 0.014889, 0.046549, 0.935277, 13.958105, -18.177370, 51.232094, 0.088570, -0.036535, 1.066417

149503719.427455, 0.024740, -0.018021, 0.003054, 0.014889, 0.046549, 0.935277, 13.969535, -18.226109, 51.244438, 0.088050, -0.036279, 1.065217

149503719.428502, 0.021075, -0.014966, -0.000611, 0.029778, 0.077582, 0.997629, 13.978679, -18.265099, 51.254311, 0.088058, -0.036300, 1.065051

149503719.429503, 0.024129, -0.020159, 0.000916, 0.029778, 0.077582, 0.997629, 13.985993, -18.296291, 51.262211, 0.088087, -0.036366, 1.064906

149503719.430550, 0.017715, -0.016188, -0.000305, 0.029778, 0.077582, 0.950865, 14.012382, -18.260021, 51.221882, 0.088136, -0.036428, 1.064842

149503719.431595, 0.019242, -0.017715, -0.000305, 0.029778, 0.077582, 0.950865, 14.033492, -18.231005, 51.189617, 0.088199, -0.036503, 1.064750

149503719.432594, 0.018021, -0.018326, 0.001833, 0.014889, 0.077582, 0.966453, 14.050381, -18.207790, 51.163807, 0.088221, -0.036258, 1.064104

149503719.433642, 0.019853, -0.016493, -0.000000, 0.014889, 0.077582, 0.966453, 14.104964, -18.189220, 51.143158, 0.088270, -0.036006, 1.063410

149503719.434686, 0.018326, -0.015577, -0.000916, 0.044666, 0.093098, 0.966453, 14.148631, -18.174364, 51.126640, 0.088616, -0.036361, 1.064000

149503719.435694, 0.024129, -0.013439, 0.005498, 0.044666, 0.093098, 0.966453, 14.183564, -18.162479, 51.113426, 0.089004, -0.036688, 1.064616

149503719.436743, 0.027184, -0.016188, 0.006109, 0.044666, 0.093098, 0.966453, 14.190974, -18.152971, 51.126179, 0.089425, -0.037044, 1.065217

149503719.437742, 0.016493, -0.020769, 0.003054, 0.059555, 0.093098, 0.966453, 14.196902, -18.145365, 51.136379, 0.089730, -0.037730, 1.066293

149503719.438787, 0.013439, -0.017410, 0.003360, 0.059555, 0.093098, 0.966453, 14.201645, -18.139278, 51.144539, 0.090005, -0.038378, 1.067350

149503719.439834, 0.019853, -0.017410, 0.001222, 0.059555, 0.046549, 0.935277, 14.205439, -18.114002, 51.174393, 0.089407, -0.039065, 1.067618

149503719.440879, 0.018937, -0.016493, -0.001222, 0.059555, 0.046549, 0.935277, 14.208474, -18.093781, 51.198277, 0.088812, -0.039726, 1.067849

149503719.441875, 0.016799, -0.018021, 0.002443, 0.044666, 0.077582, 0.982041, 14.210902, -18.077604, 51.217384, 0.088777, -0.040016, 1.067985

149503719.442921, 0.020464, -0.018631, 0.004887, 0.044666, 0.077582, 0.982041, 14.212845, -18.064663, 51.232670, 0.088788, -0.040317, 1.068139

149503719.443968, 0.024435, -0.016799, 0.005192, 0.029778, 0.046549, 0.966453, 14.234935, -18.074718, 51.198250, 0.088229, -0.040282, 1.067161

149503719.444967, 0.022602, -0.019242, 0.001222, 0.029778, 0.046549, 0.966453, 14.252607, -18.082762, 51.170712, 0.087653, -0.040260, 1.066150

149503719.446018, 0.019548, -0.019242, 0.003054, 0.014889, 0.093098, 0.950865, 14.266746, -18.089197, 51.148682, 0.088059, -0.039969, 1.065635

149503719.447025, 0.017715, -0.014050, 0.003971, 0.014889, 0.093098, 0.950865, 14.278056, -18.094345, 51.131058, 0.088430, -0.039626, 1.065136

149503719.448075, 0.020464, -0.014966, 0.006109, 0.014889, 0.093098, 0.919689, 14.287105, -18.098463, 51.116959, 0.088893, -0.039317, 1.064741

149503719.449123, 0.021686, -0.016799, 0.002443, 0.014889, 0.093098, 0.919689, 14.294343, -18.101757, 51.105679, 0.089360, -0.039029, 1.064311

149503719.450126, 0.019853, -0.013744, -0.003360, 0.029778, 0.077582, 0.982041, 14.361743, -18.104393, 51.096657, 0.089348, -0.038983, 1.063846

149503719.451178, 0.018937, -0.017715, -0.000916, 0.029778, 0.077582, 0.982041, 14.415663, -18.106503, 51.089439, 0.089336, -0.038986, 1.063374

149503719.452177, 0.022907, -0.020159, 0.000916, 0.044666, 0.077582, 0.950865, 14.458798, -18.108189, 51.083664, 0.089403, -0.039340, 1.063512

149503719.453226, 0.021686, -0.020769, 0.003971, 0.044666, 0.077582, 0.950865, 14.493307, -18.109539, 51.079044, 0.089466, -0.039706, 1.063654

149503719.454234, 0.019853, -0.015882, 0.001222, 0.014889, 0.077582, 0.966453, 14.520914, -18.110619, 51.075348, 0.089486, -0.039372, 1.062675

149503719.455293, 0.011606, -0.014661, 0.001222, 0.014889, 0.077582, 0.966453, 14.543000, -18.111483, 51.072392, 0.089431, -0.039040, 1.061703

149503719.456342, 0.024435, -0.018021, 0.002749, 0.044666, 0.077582, 0.950865, 14.560669, -18.112173, 51.070026, 0.089521, -0.039382, 1.061825

149503719.457344, 0.018631, -0.016493, 0.005192, 0.044666, 0.077582, 0.950865, 14.533731, -18.112726, 51.114784, 0.089541, -0.039696, 1.061991

149503719.458396, 0.020159, -0.014966, 0.003360, 0.029778, 0.062065, 0.950865, 14.512181, -18.113169, 51.150589, 0.089264, -0.039676, 1.061310

149503719.459396, 0.020159, -0.014661, 0.001222, 0.029778, 0.062065, 0.950865, 14.494941, -18.113522, 51.179234, 0.088983, -0.039643, 1.060635

149503719.460445, 0.023213, -0.018021, 0.003971, 0.044666, 0.077582, 0.950865, 14.501685, -18.134212, 51.108852, 0.089070, -0.039975, 1.060842

149503719.461497, 0.018937, -0.020159, 0.004276, 0.044666, 0.077582, 0.950865, 14.507080, -18.150764, 51.052547, 0.089111, -0.040323, 1.061046

149503719.462498, 0.024129, -0.014661, 0.001527, 0.044666, 0.062065, 0.997629, 14.511396, -18.164007, 51.007504, 0.088808, -0.040550, 1.060784

149503719.463546, 0.020769, -0.012828, -0.000916, 0.044666, 0.062065, 0.997629, 14.514850, -18.154194, 50.994793, 0.088488, -0.040759, 1.060498

149503719.464586, 0.016493, -0.015272, -0.000916, 0.029778, 0.093098, 0.997629, 14.517612, -18.146343, 50.984623, 0.088749, -0.040693, 1.060283

149503719.465593, 0.020769, -0.016799, 0.000611, 0.029778, 0.093098, 0.997629, 14.519822, -18.140062, 50.976486, 0.089042, -0.040640, 1.060082

149503719.466644, 0.021686, -0.016493, 0.000611, 0.029778, 0.093098, 0.997629, 14.521590, -18.135036, 50.969978, 0.089347, -0.040591, 1.059883

149503719.467648, 0.023518, -0.015577, 0.002138, 0.029778, 0.062065, 0.982041, 14.523005, -18.192242, 51.011421, 0.089057, -0.040530, 1.059174

149503719.468697, 0.023518, -0.016493, 0.003360, 0.029778, 0.062065, 0.982041, 14.524136, -18.238005, 51.044575, 0.088783, -0.040487, 1.058512

149503719.469697, 0.024435, -0.016799, 0.003971, 0.029778, 0.093098, 0.919689, 14.525041, -18.274616, 51.071098, 0.089263, -0.040489, 1.058650

149503719.470747, 0.022907, -0.019548, 0.002749, 0.029778, 0.093098, 0.919689, 14.505228, -18.201864, 51.045666, 0.089730, -0.040525, 1.058757

149503719.471798, 0.020159, -0.014966, 0.000305, 0.029778, 0.077582, 0.982041, 14.489378, -18.143661, 51.025322, 0.089722, -0.040471, 1.058364

149503719.472806, 0.015272, -0.012523, 0.000611, 0.029778, 0.077582, 0.982041, 14.476698, -18.097099, 51.009045, 0.089657, -0.040388, 1.057973

149503719.473854, 0.018326, -0.016493, 0.001833, 0.029778, 0.062065, 0.950865, 14.507627, -18.100666, 51.042671, 0.089359, -0.040368, 1.057349

149503719.474858, 0.016188, -0.017410, 0.002138, 0.029778, 0.062065, 0.950865, 14.532370, -18.103519, 51.069572, 0.089037, -0.040350, 1.056724

149503719.475910, 0.023518, -0.016799, 0.000916, 0.029778, 0.077582, 0.966453, 14.552164, -18.105803, 51.091095, 0.089103, -0.040329, 1.056363

149503719.476910, 0.021075, -0.014966, 0.003054, 0.029778, 0.077582, 0.966453, 14.568000, -18.107630, 51.084988, 0.089130, -0.040284, 1.056020

149503719.477959, 0.019548, -0.014966, 0.005803, 0.014889, 0.093098, 0.966453, 14.621741, -18.109091, 51.080105, 0.089475, -0.039945, 1.055479

149503719.479013, 0.016799, -0.017410, 0.002138, 0.014889, 0.093098, 0.966453, 14.664734, -18.110260, 51.076199, 0.089786, -0.039636, 1.054882

149503719.480013, 0.023518, -0.016188, 0.000611, 0.044666, 0.062065, 0.950865, 14.699128, -18.111195, 51.073071, 0.089525, -0.039937, 1.054720

149503719.481063, 0.023213, -0.017410, 0.002138, 0.044666, 0.062065, 0.950865, 14.706107, -18.030310, 51.070568, 0.089276, -0.040253, 1.054538

149503719.482064, 0.019242, -0.013439, 0.003971, 0.014889, 0.093098, 0.966453, 14.711691, -17.965603, 51.068569, 0.089607, -0.039891, 1.053895

149503719.483117, 0.020159, -0.017104, 0.003054, 0.014889, 0.093098, 0.966453, 14.716158, -17.913837, 51.066967, 0.089951, -0.039581, 1.053229

149503719.484166, 0.013744, -0.018021, 0.003054, 0.029778, 0.077582, 0.997629, 14.699195, -17.954058, 51.042362, 0.089848, -0.039568, 1.052717

149503719.485177, 0.018021, -0.015882, 0.005498, 0.029778, 0.077582, 0.997629, 14.685624, -17.986233, 51.022678, 0.089782, -0.039531, 1.052261

149503719.486226, 0.019853, -0.016799, 0.001527, 0.029778, 0.077582, 0.950865, 14.674767, -18.011974, 51.006931, 0.089821, -0.039536, 1.051913

149503719.487230, 0.021380, -0.014966, -0.000611, 0.029778, 0.077582, 0.950865, 14.686619, -18.032566, 51.064308, 0.089865, -0.039514, 1.051556

149503719.488279, 0.021075, -0.017104, 0.000305, 0.029778, 0.093098, 0.935277, 14.696100, -18.049040, 51.110207, 0.090269, -0.039533, 1.051558

149503719.489288, 0.011912, -0.015882, 0.000611, 0.029778, 0.093098, 0.935277, 14.703685, -18.062220, 51.146927, 0.090565, -0.039533, 1.051567

149503719.490325, 0.017715, -0.013134, 0.003360, 0.029778, 0.077582, 0.982041, 14.709753, -18.072763, 51.176304, 0.090512, -0.039480, 1.051182

149503719.491382, 0.021075, -0.014050, 0.000305, 0.029778, 0.077582, 0.982041, 14.714607, -18.142422, 51.176479, 0.090499, -0.039438, 1.050797

149503719.492386, 0.021380, -0.014355, -0.001222, 0.014889, 0.062065, 0.982041, 14.718491, -18.198149, 51.176620, 0.090177, -0.039076, 1.049613

149503719.493441, 0.020769, -0.017715, 0.003971, 0.014889, 0.062065, 0.982041, 14.721598, -18.242731, 51.176735, 0.089862, -0.038768, 1.048519

149503719.494444, 0.016799, -0.016799, 0.003665, 0.014889, 0.062065, 0.982041, 14.683010, -18.257988, 51.200150, 0.089504, -0.038449, 1.047475

149503719.495496, 0.018937, -0.017104, 0.003971, 0.044666, 0.062065, 0.966453, 14.652141, -18.270193, 51.218880, 0.089191, -0.038782, 1.047553

149503719.496500, 0.021686, -0.014966, 0.004276, 0.044666, 0.062065, 0.966453, 14.627445, -18.279959, 51.233864, 0.088903, -0.039080, 1.047655

149503719.497552, 0.021991, -0.019548, 0.005192, 0.029778, 0.093098, 0.982041, 14.607689, -18.246954, 51.175880, 0.089240, -0.039107, 1.047786

149503719.498601, 0.025351, -0.015577, 0.002443, 0.029778, 0.093098, 0.982041, 14.591884, -18.220551, 51.129494, 0.089605, -0.039090, 1.047888

149503719.499602, 0.022907, -0.019853, 0.002749, 0.029778, 0.093098, 0.966453, 14.579239, -18.199429, 51.092384, 0.089958, -0.039118, 1.048027

149503719.500651, 0.019853, -0.017715, 0.002443, 0.029778, 0.093098, 0.966453, 14.548587, -18.080490, 51.039371, 0.090282, -0.039132, 1.048136

149503719.501652, 0.016799, -0.018631, 0.004581, 0.059555, 0.077582, 0.966453, 14.524065, -17.985338, 50.996964, 0.090252, -0.039766, 1.049007

149503719.502701, 0.021075, -0.014050, 0.003360, 0.059555, 0.077582, 0.966453, 14.504448, -17.909218, 50.963036, 0.090273, -0.040349, 1.049838

149503719.503750, 0.021380, -0.014050, 0.004276, 0.044666, 0.077582, 0.950865, 14.488754, -17.848320, 50.935894, 0.090315, -0.040627, 1.050158

149503719.504754, 0.021380, -0.013439, 0.004276, 0.044666, 0.077582, 0.950865, 14.517272, -17.840420, 50.914181, 0.090347, -0.040887, 1.050446

149503719.505802, 0.026267, -0.015882, 0.004276, 0.014889, 0.062065, 0.966453, 14.540086, -17.834099, 50.896809, 0.090106, -0.040528, 1.049303

149503719.506801, 0.024435, -0.015272, 0.004581, 0.014889, 0.062065, 0.966453, 14.558337, -17.829042, 50.882912, 0.089839, -0.040163, 1.048170

149503719.507851, 0.017715, -0.014355, 0.000611, 0.029778, 0.046549, 0.919689, 14.593474, -17.865812, 50.918442, 0.089240, -0.040137, 1.047298

149503719.508902, 0.020769, -0.016493, -0.002749, 0.029778, 0.046549, 0.919689, 14.621585, -17.895229, 50.946865, 0.088685, -0.040131, 1.046403

149503719.509904, 0.023213, -0.016799, 0.002443, 0.029778, 0.062065, 0.950865, 14.644073, -17.918762, 50.969604, 0.088445, -0.040113, 1.045843

149503719.510952, 0.014966, -0.015577, 0.004276, 0.029778, 0.062065, 0.950865, 14.662063, -17.957996, 51.011120, 0.088135, -0.040093, 1.045320

149503719.511955, 0.026878, -0.016188, 0.004581, 0.029778, 0.093098, 0.935277, 14.676455, -17.989384, 51.044334, 0.088619, -0.040086, 1.045478

149503719.513003, 0.018326, -0.018631, 0.001222, 0.029778, 0.093098, 0.935277, 14.687969, -18.014494, 51.070904, 0.089019, -0.040109, 1.045600

149503719.514053, 0.020464, -0.015272, 0.002749, 0.029778, 0.062065, 0.950865, 14.697181, -18.034582, 51.092159, 0.088754, -0.040084, 1.045079

149503719.515054, 0.021380, -0.018631, 0.003665, 0.029778, 0.062065, 0.950865, 14.704550, -18.111877, 51.062515, 0.088494, -0.040087, 1.044600

149503719.516103, 0.017715, -0.015272, 0.005498, 0.029778, 0.077582, 0.966453, 14.710444, -18.173714, 51.038799, 0.088508, -0.040059, 1.044447

149503719.517150, 0.028711, -0.015577, 0.006414, 0.029778, 0.077582, 0.966453, 14.715160, -18.223183, 51.019829, 0.088633, -0.040037, 1.044322

149503719.518169, 0.018631, -0.015882, 0.001527, 0.029778, 0.077582, 0.966453, 14.677860, -18.160717, 50.981327, 0.088649, -0.040009, 1.044147

149503719.519171, 0.024129, -0.020464, 0.000916, 0.029778, 0.077582, 0.966453, 14.648021, -18.110744, 50.950527, 0.088716, -0.040023, 1.043964

149503719.520221, 0.019853, -0.016799, -0.000611, 0.029778, 0.093098, 0.935277, 14.624149, -18.070766, 50.925888, 0.089131, -0.040027, 1.044154

149503719.521273, 0.017104, -0.016493, 0.003665, 0.029778, 0.093098, 0.935277, 14.666660, -18.038784, 50.882851, 0.089507, -0.040031, 1.044342

149503719.522275, 0.021380, -0.010996, 0.003971, 0.029778, 0.093098, 0.935277, 14.700669, -18.013199, 50.848423, 0.089909, -0.039975, 1.044499

149503719.523320, 0.016188, -0.010690, 0.000916, 0.014889, 0.093098, 0.982041, 14.727877, -17.992729, 50.820881, 0.090174, -0.039588, 1.043981

149503719.524329, 0.016188, -0.015882, 0.002138, 0.014889, 0.093098, 0.982041, 14.667498, -17.976355, 50.845493, 0.090426, -0.039258, 1.043515

149503719.525383, 0.016188, -0.013134, 0.004276, 0.014889, 0.077582, 0.950865, 14.619194, -17.963255, 50.865185, 0.090420, -0.038921, 1.042874

149503719.526386, 0.016493, -0.013134, 0.001527, 0.014889, 0.077582, 0.950865, 14.580551, -17.952774, 50.880936, 0.090409, -0.038581, 1.042239

149503719.527436, 0.019548, -0.017410, 0.001527, 0.014889, 0.062065, 0.982041, 14.549637, -17.944389, 50.893536, 0.090076, -0.038279, 1.041242

149503719.528488, 0.022297, -0.019548, 0.002443, 0.014889, 0.062065, 0.982041, 14.627587, -17.958090, 50.903618, 0.089778, -0.038005, 1.040227

149503719.529506, 0.019853, -0.015272, 0.001833, 0.029778, 0.062065, 0.950865, 14.689947, -17.969051, 50.911682, 0.089485, -0.038018, 1.039772

149503719.530510, 0.020769, -0.014050, 0.000305, 0.029778, 0.062065, 0.950865, 14.739836, -17.977819, 50.918133, 0.089206, -0.038014, 1.039283

149503719.531561, 0.019242, -0.014661, 0.002443, 0.044666, 0.077582, 0.966453, 14.697601, -17.964426, 50.969944, 0.089223, -0.038329, 1.039646

149503719.532611, 0.016493, -0.012828, 0.003665, 0.044666, 0.077582, 0.966453, 14.663814, -17.953712, 51.011391, 0.089210, -0.038620, 1.040038

149503719.533617, 0.014661, -0.014661, 0.002138, 0.014889, 0.062065, 0.982041, 14.636784, -17.945141, 51.044548, 0.088844, -0.038283, 1.039042

149503719.534666, 0.017104, -0.017104, 0.003360, 0.014889, 0.062065, 0.982041, 14.615159, -17.917875, 51.047752, 0.088516, -0.037986, 1.038078

149503719.535668, 0.015882, -0.015577, 0.001833, 0.029778, 0.062065, 0.950865, 14.597859, -17.896063, 51.050316, 0.088207, -0.038000, 1.037706

149503719.536719, 0.024129, -0.017410, -0.002138, 0.029778, 0.062065, 0.950865, 14.584020, -17.878613, 51.052364, 0.087997, -0.038037, 1.037300

149503719.537721, 0.020464, -0.016188, 0.002138, 0.014889, 0.077582, 0.966453, 14.572948, -17.864653, 51.054005, 0.088047, -0.037742, 1.036722

149503719.538770, 0.018021, -0.016188, 0.001833, 0.014889, 0.077582, 0.966453, 14.605164, -17.975933, 51.031994, 0.088079, -0.037459, 1.036177

149503719.539821, 0.019548, -0.017715, 0.000916, 0.044666, 0.062065, 0.950865, 14.630936, -18.064959, 51.014385, 0.087824, -0.037832, 1.036416

149503719.540822, 0.017410, -0.015272, -0.000611, 0.044666, 0.062065, 0.950865, 14.651553, -18.136179, 51.000298, 0.087544, -0.038164, 1.036651

149503719.541872, 0.018631, -0.014355, 0.003360, 0.029778, 0.077582, 0.950865, 14.688583, -18.070705, 50.965702, 0.087612, -0.038175, 1.036649

149503719.542926, 0.023824, -0.015577, 0.003971, 0.029778, 0.077582, 0.950865, 14.718208, -18.018328, 50.938026, 0.087734, -0.038200, 1.036609

149503719.543917, 0.020159, -0.016493, 0.001833, 0.029778, 0.077582, 0.966453, 14.741908, -17.976425, 50.915886, 0.087777, -0.038211, 1.036472

149503719.544964, 0.020159, -0.015577, 0.004581, 0.029778, 0.077582, 0.966453, 14.740332, -17.983719, 50.898174, 0.087830, -0.038223, 1.036369

149503719.546010, 0.013134, -0.018021, 0.001527, 0.029778, 0.077582, 0.982041, 14.739070, -17.989553, 50.884007, 0.087785, -0.038248, 1.036197

149503719.547017, 0.021380, -0.018937, 0.003054, 0.029778, 0.077582, 0.982041, 14.738061, -17.994223, 50.872669, 0.087818, -0.038275, 1.036045

149503719.548033, 0.025045, -0.015882, 0.003665, 0.029778, 0.031033, 0.950865, 14.798862, -17.997957, 50.863602, 0.086966, -0.038265, 1.034921

149503719.549085, 0.021075, -0.014661, 0.004276, 0.029778, 0.031033, 0.950865, 14.847504, -18.000944, 50.856346, 0.086100, -0.038249, 1.033795

149503719.550134, 0.027184, -0.015882, 0.005803, 0.044666, 0.093098, 0.966453, 14.886417, -18.003334, 50.850544, 0.086579, -0.038568, 1.034467

149503719.551142, 0.016493, -0.013744, 0.005192, 0.044666, 0.093098, 0.966453, 14.917548, -18.005247, 50.845901, 0.086931, -0.038853, 1.035098

149503719.552190, 0.019548, -0.013744, 0.003054, 0.044666, 0.093098, 0.966453, 14.942452, -17.925144, 50.842186, 0.087315, -0.039137, 1.035650

149503719.553189, 0.015577, -0.017104, 0.000611, 0.014889, 0.093098, 1.013217, 14.962376, -17.861061, 50.839214, 0.087562, -0.038815, 1.035030

149503719.554237, 0.017104, -0.018326, 0.001527, 0.014889, 0.093098, 1.013217, 14.978314, -17.809795, 50.836838, 0.087826, -0.038522, 1.034400

149503719.555286, 0.025962, -0.016188, 0.002138, 0.029778, 0.077582, 0.950865, 14.929457, -17.789190, 50.834934, 0.087965, -0.038542, 1.034148

149503719.556284, 0.018021, -0.016188, 0.003054, 0.029778, 0.077582, 0.950865, 14.890370, -17.772707, 50.833412, 0.088011, -0.038555, 1.033929

149503719.557329, 0.018326, -0.016799, 0.001527, 0.029778, 0.077582, 0.950865, 14.859101, -17.759520, 50.832195, 0.088067, -0.038580, 1.033714

149503719.558378, 0.020464, -0.014661, 0.002749, 0.029778, 0.077582, 0.950865, 14.813550, -17.748970, 50.831223, 0.088145, -0.038585, 1.033545

149503719.559378, 0.019548, -0.016188, 0.004887, 0.014889, 0.077582, 0.950865, 14.777108, -17.740530, 50.830444, 0.088208, -0.038285, 1.032909

149503719.560424, 0.019853, -0.015577, 0.001527, 0.014889, 0.077582, 0.950865, 14.747955, -17.733778, 50.829823, 0.088283, -0.037990, 1.032270

149503719.561475, 0.020769, -0.018021, 0.001527, 0.044666, 0.062065, 0.966453, 14.745170, -17.789602, 50.829323, 0.088014, -0.038339, 1.032342

149503719.562475, 0.019242, -0.017104, 0.000305, 0.044666, 0.062065, 0.966453, 14.742941, -17.834261, 50.828922, 0.087726, -0.038662, 1.032423

149503719.563521, 0.020159, -0.018326, -0.000000, 0.044666, 0.062065, 0.966453, 14.741158, -17.869987, 50.828602, 0.087462, -0.038999, 1.032513

149503719.564521, 0.018021, -0.018937, 0.002138, 0.044666, 0.062065, 0.966453, 14.739731, -17.898569, 50.828346, 0.087172, -0.039329, 1.032635

149503719.565569, 0.024129, -0.018021, 0.002749, 0.044666, 0.077582, 0.950865, 14.697517, -17.901026, 50.828144, 0.087306, -0.039666, 1.033149

149503719.566618, 0.029932, -0.018326, 0.001527, 0.044666, 0.077582, 0.950865, 14.663746, -17.902992, 50.827980, 0.087498, -0.039999, 1.033664

149503719.567625, 0.020464, -0.016188, 0.001833, 0.029778, 0.062065, 0.966453, 14.636729, -17.904564, 50.827850, 0.087234, -0.039971, 1.033307

149503719.568679, 0.027489, -0.018021, 0.002138, 0.029778, 0.062065, 0.966453, 14.656188, -17.824190, 50.827747, 0.087057, -0.039969, 1.032911

149503719.569681, 0.026267, -0.016188, 0.004276, 0.044666, 0.077582, 0.966453, 14.671756, -17.759890, 50.827663, 0.087176, -0.040254, 1.033348

149503719.570732, 0.025351, -0.016799, 0.004887, 0.044666, 0.077582, 0.966453, 14.684210, -17.708450, 50.827595, 0.087295, -0.040547, 1.033755

149503719.571739, 0.020769, -0.018937, 0.002443, 0.014889, 0.062065, 0.935277, 14.694173, -17.748932, 50.850864, 0.087091, -0.040233, 1.032844

149503719.572794, 0.021686, -0.014050, 0.005192, 0.014889, 0.062065, 0.935277, 14.702144, -17.781317, 50.869480, 0.086907, -0.039886, 1.031995

149503719.573795, 0.022297, -0.022602, 0.004276, 0.044666, 0.139647, 0.935277, 14.708520, -17.807224, 50.884373, 0.088356, -0.040209, 1.033602

149503719.574845, 0.023518, -0.020464, 0.003971, 0.044666, 0.139647, 0.935277, 14.713621, -17.827950, 50.896286, 0.089799, -0.040517, 1.035179

149503719.575898, 0.020769, -0.021380, -0.001222, 0.059555, 0.077582, 0.982041, 14.697165, -17.885347, 50.975792, 0.089804, -0.041138, 1.036030

149503719.576898, 0.023213, -0.018326, -0.001222, 0.059555, 0.077582, 0.982041, 14.684001, -17.931265, 51.039394, 0.089822, -0.041706, 1.036900

149503719.577947, 0.026878, -0.014966, 0.001833, 0.044666, 0.046549, 0.935277, 14.673470, -17.967999, 51.090279, 0.089296, -0.041977, 1.036789

149503719.578952, 0.020464, -0.012828, 0.004276, 0.044666, 0.046549, 0.935277, 14.726653, -17.936161, 51.107658, 0.088704, -0.042217, 1.036655

149503719.580002, 0.019853, -0.012523, 0.005498, 0.044666, 0.046549, 0.935277, 14.769200, -17.910692, 51.121563, 0.088127, -0.042456, 1.036497

149503719.581050, 0.025045, -0.013744, 0.005192, 0.029778, 0.077582, 0.935277, 14.803238, -17.890316, 51.132687, 0.088276, -0.042386, 1.036421

149503719.582046, 0.022907, -0.012523, 0.000916, 0.029778, 0.077582, 0.950865, 14.789395, -17.914831, 51.024967, 0.088363, -0.042285, 1.036273

149503719.583109, 0.015577, -0.014355, -0.000000, 0.014889, 0.062065, 0.982041, 14.778321, -17.934444, 50.938789, 0.088035, -0.041878, 1.035230

149503719.584112, 0.019242, -0.016188, -0.001833, 0.014889, 0.062065, 0.982041, 14.769462, -17.950134, 50.869850, 0.087740, -0.041487, 1.034198

149503719.585161, 0.027184, -0.018937, 0.002138, 0.029778, 0.062065, 0.982041, 14.762374, -18.003502, 50.861347, 0.087529, -0.041453, 1.033752

149503719.586179, 0.020769, -0.014661, 0.004276, 0.029778, 0.062065, 0.982041, 14.756704, -18.046196, 50.854542, 0.087249, -0.041373, 1.033362

149503719.587231, 0.014661, -0.017104, 0.002749, 0.029778, 0.077582, 0.966453, 14.752169, -18.080353, 50.849098, 0.087257, -0.041338, 1.033330

149503719.588234, 0.016493, -0.018937, 0.002749, 0.029778, 0.077582, 0.966453, 14.748540, -18.107677, 50.844746, 0.087276, -0.041313, 1.033309

149503719.589290, 0.015272, -0.015272, -0.000611, -0.015630, 0.077582, 0.935277, 14.807246, -18.149946, 50.841263, 0.087387, -0.040308, 1.031813

149503719.590291, 0.009163, -0.014661, -0.001222, -0.015630, 0.077582, 0.935277, 14.854211, -18.183760, 50.838474, 0.087426, -0.039308, 1.030329

149503719.591339, 0.015882, -0.013439, 0.002749, 0.029778, 0.062065, 0.950865, 14.891783, -18.210812, 50.836246, 0.087145, -0.039284, 1.030044

149503719.592388, 0.015577, -0.014050, 0.001833, 0.029778, 0.062065, 0.950865, 14.860231, -18.150820, 50.881111, 0.086867, -0.039265, 1.029754

149503719.593389, 0.017715, -0.014966, 0.004887, 0.029778, 0.062065, 0.966453, 14.834991, -18.102827, 50.917004, 0.086586, -0.039241, 1.029459

149503719.594439, 0.021686, -0.015882, 0.003665, 0.029778, 0.062065, 0.966453, 14.814797, -18.064432, 50.945717, 0.086360, -0.039234, 1.029158

149503719.595443, 0.024740, -0.018326, 0.004276, 0.029778, 0.077582, 0.966453, 14.798643, -18.054125, 50.922039, 0.086478, -0.039247, 1.029185

149503719.596497, 0.022297, -0.015272, 0.001527, 0.029778, 0.077582, 0.966453, 14.785720, -18.045879, 50.903095, 0.086580, -0.039234, 1.029193

149503719.597501, 0.027489, -0.020769, 0.002138, 0.044666, 0.077582, 0.966453, 14.775381, -18.039282, 50.887943, 0.086723, -0.039578, 1.029720

149503719.598551, 0.021075, -0.019548, 0.003360, 0.044666, 0.077582, 0.966453, 14.767110, -18.034004, 50.875820, 0.086808, -0.039912, 1.030253

149503719.599599, 0.025045, -0.015577, 0.003360, 0.029778, 0.062065, 0.950865, 14.760493, -18.152231, 50.912769, 0.086633, -0.039898, 1.030043

149503719.600605, 0.020159, -0.015577, 0.000611, 0.029778, 0.062065, 0.950865, 14.755199, -18.246813, 50.942329, 0.086404, -0.039877, 1.029853

149503719.601654, 0.025656, -0.015577, 0.003971, 0.029778, 0.062065, 0.950865, 14.750964, -18.322479, 50.965977, 0.086243, -0.039866, 1.029735

149503719.602655, 0.020159, -0.013744, 0.000916, 0.029778, 0.062065, 0.950865, 14.685967, -18.260563, 51.008217, 0.086020, -0.039827, 1.029612

149503719.603709, 0.022297, -0.014966, 0.003054, 0.029778, 0.077582, 0.966453, 14.633970, -18.211029, 51.042011, 0.086131, -0.039802, 1.029800

149503719.604725, 0.020464, -0.016188, 0.003360, 0.029778, 0.077582, 0.966453, 14.592372, -18.171402, 51.069046, 0.086212, -0.039784, 1.030000

149503719.605776, 0.016493, -0.015577, 0.003665, 0.044666, 0.062065, 0.935277, 14.641239, -18.119293, 51.044025, 0.085984, -0.040108, 1.030458

149503719.606777, 0.015882, -0.014966, 0.003360, 0.044666, 0.062065, 0.935277, 14.680332, -18.077606, 51.024010, 0.085746, -0.040411, 1.030859

149503719.607830, 0.014966, -0.016493, -0.000000, 0.044666, 0.093098, 0.950865, 14.711607, -18.044256, 51.007996, 0.086141, -0.040701, 1.031724

149503719.608881, 0.020159, -0.014050, 0.003665, 0.029778, 0.093098, 0.950865, 14.695554, -18.078800, 51.018509, 0.086575, -0.040656, 1.032121

149503719.609881, 0.016493, -0.012217, 0.000916, 0.029778, 0.093098, 0.950865, 14.682712, -18.106436, 51.026920, 0.086955, -0.040584, 1.032502

149503719.610934, 0.019548, -0.016188, 0.003360, 0.029778, 0.062065, 0.966453, 14.672438, -18.128544, 51.033649, 0.086700, -0.040554, 1.032264

149503719.611937, 0.021686, -0.017715, 0.001527, 0.029778, 0.062065, 0.966453, 14.664219, -18.146231, 51.039032, 0.086463, -0.040529, 1.032024

149503719.612985, 0.012523, -0.016188, -0.000305, 0.059555, 0.124131, 0.966453, 14.637108, -18.099155, 50.973366, 0.087436, -0.041067, 1.033883

149503719.614034, 0.015272, -0.014966, 0.001833, 0.059555, 0.124131, 0.966453, 14.615418, -18.061495, 50.920834, 0.088416, -0.041585, 1.035727

149503719.615039, 0.023518, -0.014966, 0.005192, 0.029778, 0.062065, 0.966453, 14.598067, -18.031366, 50.878807, 0.088162, -0.041516, 1.035445

149503719.616088, 0.022907, -0.016493, 0.004887, 0.029778, 0.062065, 0.966453, 14.625258, -18.007263, 50.821861, 0.087917, -0.041469, 1.035135

149503719.617088, 0.016799, -0.017410, 0.002749, 0.029778, 0.077582, 0.950865, 14.647012, -17.987982, 50.776306, 0.087951, -0.041437, 1.035138

149503719.618136, 0.021380, -0.017410, 0.003360, 0.029778, 0.077582, 0.950865, 14.664414, -17.972557, 50.739861, 0.088040, -0.041413, 1.035127

149503719.619186, 0.012828, -0.012828, 0.001833, 0.029778, 0.093098, 0.982041, 14.616728, -17.960217, 50.757355, 0.088300, -0.041321, 1.035344

149503719.620187, 0.015577, -0.012828, -0.001222, 0.029778, 0.093098, 0.982041, 14.578578, -17.950344, 50.771351, 0.088576, -0.041222, 1.035548

149503719.621236, 0.023213, -0.013744, 0.000305, 0.029778, 0.077582, 0.935277, 14.548059, -17.942446, 50.782547, 0.088699, -0.041173, 1.035613

149503719.622241, 0.017104, -0.013439, 0.000611, 0.029778, 0.077582, 0.935277, 14.523643, -17.936127, 50.791504, 0.088748, -0.041117, 1.035694

149503719.623293, 0.019242, -0.015272, 0.002443, 0.014889, 0.077582, 0.966453, 14.504110, -17.931072, 50.798668, 0.088780, -0.040759, 1.035215

149503719.624343, 0.013744, -0.016493, 0.002443, 0.014889, 0.077582, 0.966453, 14.488484, -17.927029, 50.804401, 0.088753, -0.040420, 1.034752

149503719.625349, 0.019242, -0.015882, 0.007025, 0.044666, 0.077582, 0.966453, 14.475984, -17.923794, 50.808987, 0.088769, -0.040697, 1.035377

149503719.626401, 0.021991, -0.013744, 0.001833, 0.044666, 0.077582, 0.966453, 14.548128, -17.962023, 50.835979, 0.088824, -0.040949, 1.035907

149503719.627400, 0.018021, -0.015272, 0.001222, 0.014889, 0.077582, 0.950865, 14.605844, -17.992605, 50.857571, 0.088858, -0.040590, 1.035406

149503719.628450, 0.015882, -0.016799, 0.002749, 0.014889, 0.077582, 0.950865, 14.652016, -18.017071, 50.874844, 0.088878, -0.040263, 1.034909

149503719.629458, 0.013134, -0.017410, 0.003665, 0.014889, 0.077582, 1.013217, 14.688953, -17.975420, 50.888664, 0.088767, -0.039921, 1.034259

149503719.630506, 0.017410, -0.018937, 0.003054, 0.014889, 0.077582, 1.013217, 14.718504, -17.942099, 50.899719, 0.088707, -0.039608, 1.033584

149503719.631554, 0.019242, -0.017410, 0.006414, 0.029778, 0.077582, 0.966453, 14.742145, -17.915442, 50.908566, 0.088731, -0.039614, 1.033528

149503719.632560, 0.016188, -0.014661, 0.002443, 0.029778, 0.077582, 0.966453, 14.740520, -17.934933, 50.938965, 0.088718, -0.039581, 1.033446

149503719.633611, 0.018631, -0.013744, 0.003360, 0.029778, 0.077582, 0.950865, 14.739222, -17.950525, 50.963284, 0.088763, -0.039558, 1.033426

149503719.634624, 0.024435, -0.014050, 0.002749, 0.029778, 0.077582, 0.950865, 14.738182, -17.962999, 50.982738, 0.088858, -0.039532, 1.033406

149503719.635673, 0.019853, -0.013744, 0.004276, 0.059555, 0.077582, 0.935277, 14.737350, -17.972979, 50.998302, 0.088952, -0.040157, 1.034538

149503719.636679, 0.015272, -0.014355, 0.004276, 0.059555, 0.077582, 0.935277, 14.736686, -18.042187, 50.894135, 0.088990, -0.040769, 1.035664

149503719.637730, 0.020769, -0.017104, 0.005803, 0.059555, 0.077582, 0.935277, 14.736154, -18.097553, 50.810799, 0.089090, -0.041405, 1.036795

149503719.638730, 0.025045, -0.018326, 0.004276, 0.029778, 0.062065, 0.950865, 14.735728, -18.141846, 50.744133, 0.088858, -0.041381, 1.036464

149503719.639801, 0.018021, -0.015882, 0.002138, 0.029778, 0.062065, 0.950865, 14.755924, -18.095648, 50.714123, 0.088575, -0.041341, 1.036087

149503719.640825, 0.019548, -0.018021, 0.004581, 0.029778, 0.093098, 0.997629, 14.772080, -18.058689, 50.690117, 0.088859, -0.041293, 1.036197

149503719.641841, 0.023518, -0.015577, 0.004581, 0.029778, 0.093098, 0.997629, 14.785006, -18.029121, 50.670910, 0.089175, -0.041220, 1.036285

149503719.642897, 0.018021, -0.018631, 0.002749, 0.044666, 0.062065, 0.950865, 14.815882, -17.964651, 50.678867, 0.088882, -0.041527, 1.036350

149503719.643892, 0.017715, -0.018631, 0.002138, 0.044666, 0.062065, 0.950865, 14.840583, -17.913074, 50.685234, 0.088580, -0.041817, 1.036371

149503719.644942, 0.022297, -0.018326, 0.004887, 0.029778, 0.077582, 0.966453, 14.860344, -17.871815, 50.690327, 0.088641, -0.041786, 1.036135

149503719.645947, 0.028405, -0.021686, 0.005803, 0.029778, 0.077582, 0.966453, 14.835080, -17.900030, 50.717728, 0.088749, -0.041781, 1.035939

149503719.647001, 0.021075, -0.015577, 0.001527, 0.044666, 0.093098, 0.966453, 14.814869, -17.922604, 50.739647, 0.089114, -0.042025, 1.036534

149503719.648052, 0.019242, -0.015272, 0.001222, 0.044666, 0.093098, 0.966453, 14.798700, -17.940662, 50.757183, 0.089451, -0.042259, 1.037133

149503719.649054, 0.018631, -0.016493, 0.000916, 0.014889, 0.062065, 0.982041, 14.785766, -17.955109, 50.771214, 0.089122, -0.041865, 1.036078

149503719.650104, 0.021686, -0.013744, 0.005498, 0.014889, 0.062065, 0.982041, 14.816490, -17.905441, 50.782436, 0.088837, -0.041463, 1.035052

149503719.651107, 0.026878, -0.015882, 0.005192, 0.029778, 0.062065, 0.966453, 14.841070, -17.865707, 50.791416, 0.088609, -0.041402, 1.034544

149503719.652156, 0.023824, -0.014050, 0.002749, 0.029778, 0.062065, 0.966453, 14.860734, -17.833920, 50.798599, 0.088366, -0.041328, 1.033997

149503719.653166, 0.020464, -0.014661, 0.003054, 0.029778, 0.093098, 0.966453, 14.855928, -17.890123, 50.804344, 0.088721, -0.041261, 1.034108

149503719.654216, 0.024129, -0.014050, 0.003971, 0.029778, 0.093098, 0.966453, 14.852084, -17.935085, 50.808941, 0.089114, -0.041197, 1.034247

149503719.655222, 0.021075, -0.016188, 0.003054, 0.029778, 0.093098, 0.982041, 14.849009, -17.971056, 50.812618, 0.089428, -0.041138, 1.034344

149503719.656274, 0.020769, -0.013439, 0.000611, 0.029778, 0.093098, 0.982041, 14.867085, -17.979424, 50.792236, 0.089744, -0.041057, 1.034408

149503719.657324, 0.018937, -0.013744, 0.003665, 0.044666, 0.062065, 0.950865, 14.881545, -17.986118, 50.775928, 0.089447, -0.041318, 1.034494

149503719.658332, 0.028100, -0.017410, 0.003665, 0.044666, 0.062065, 0.950865, 14.893114, -17.991474, 50.762882, 0.089239, -0.041603, 1.034567

149503719.659382, 0.026573, -0.020464, 0.003054, 0.014889, 0.077582, 0.966453, 14.902369, -17.995758, 50.752445, 0.089338, -0.041288, 1.033877

149503719.660382, 0.019853, -0.016188, 0.003054, 0.014889, 0.077582, 0.966453, 14.848164, -17.978777, 50.837395, 0.089356, -0.040927, 1.033236

149503719.661436, 0.017410, -0.015577, 0.001527, 0.044666, 0.077582, 0.966453, 14.804799, -17.965193, 50.905354, 0.089351, -0.041192, 1.033632

149503719.662438, 0.014050, -0.013744, 0.001833, 0.044666, 0.077582, 0.966453, 14.770108, -17.954325, 50.959721, 0.089305, -0.041427, 1.034049

149503719.663489, 0.019853, -0.016493, 0.000305, 0.029778, 0.062065, 0.950865, 14.742355, -17.966040, 51.003212, 0.089029, -0.041388, 1.033669

149503719.664541, 0.018631, -0.012217, 0.003054, 0.029778, 0.062065, 0.950865, 14.720153, -17.975410, 51.038006, 0.088745, -0.041310, 1.033350

149503719.665553, 0.019853, -0.014966, 0.001527, 0.029778, 0.077582, 0.966453, 14.702391, -17.982908, 51.065842, 0.088770, -0.041247, 1.033314

149503719.666604, 0.020769, -0.015577, 0.002443, 0.029778, 0.077582, 0.966453, 14.770327, -17.968498, 51.018139, 0.088810, -0.041198, 1.033233

149503719.667605, 0.016188, -0.016493, 0.000611, 0.029778, 0.077582, 0.966453, 14.824676, -17.956970, 50.979977, 0.088796, -0.041149, 1.033092

149503719.668655, 0.023213, -0.016493, 0.001527, 0.029778, 0.077582, 0.950865, 14.868155, -17.947746, 50.949448, 0.088888, -0.041120, 1.032970

149503719.669659, 0.022297, -0.013134, 0.005192, 0.029778, 0.077582, 0.950865, 14.902938, -17.960775, 50.901699, 0.088957, -0.041054, 1.032869

149503719.670708, 0.020464, -0.015272, 0.004887, 0.029778, 0.077582, 0.966453, 14.930764, -17.971199, 50.863499, 0.088990, -0.041008, 1.032709

149503719.671757, 0.014966, -0.016799, 0.002138, 0.029778, 0.077582, 0.966453, 14.953026, -17.979538, 50.832939, 0.088967, -0.040975, 1.032510

149503719.672762, 0.024435, -0.019853, 0.003360, 0.044666, 0.046549, 0.966453, 14.970835, -17.986210, 50.808491, 0.088389, -0.041269, 1.032189

149503719.673811, 0.021380, -0.015577, 0.003971, 0.044666, 0.046549, 0.966453, 14.985082, -18.032364, 50.835583, 0.087802, -0.041523, 1.031897

149503719.674812, 0.020769, -0.014050, 0.003054, 0.059555, 0.062065, 0.966453, 14.996479, -18.069286, 50.857254, 0.087538, -0.042067, 1.032478

149503719.675863, 0.020769, -0.015882, 0.004276, 0.059555, 0.062065, 0.966453, 15.005597, -18.098824, 50.874592, 0.087288, -0.042628, 1.033065

149503719.676912, 0.017715, -0.018021, 0.000611, 0.014889, 0.077582, 0.919689, 14.992355, -18.102047, 50.818489, 0.087415, -0.042282, 1.032475

149503719.677912, 0.016799, -0.015882, 0.002138, 0.014889, 0.077582, 0.919689, 14.981762, -18.104626, 50.773609, 0.087522, -0.041915, 1.031920

149503719.678966, 0.013134, -0.013744, 0.001833, 0.029778, 0.077582, 0.950865, 14.973288, -18.106688, 50.737705, 0.087536, -0.041844, 1.031810

149503719.679969, 0.018021, -0.013134, 0.003665, 0.029778, 0.077582, 0.950865, 14.945971, -18.047113, 50.732304, 0.087590, -0.041762, 1.031714

149503719.681018, 0.017410, -0.015577, 0.003360, 0.029778, 0.062065, 0.966453, 14.924118, -17.999454, 50.727985, 0.087302, -0.041699, 1.031253

149503719.682066, 0.022602, -0.014966, 0.002443, 0.029778, 0.062065, 0.966453, 14.906635, -17.961327, 50.724529, 0.087072, -0.041630, 1.030789

149503719.683069, 0.020464, -0.016188, 0.001833, 0.029778, 0.062065, 0.966453, 14.892650, -17.930824, 50.721764, 0.086817, -0.041567, 1.030321

149503719.684121, 0.020769, -0.014355, 0.000916, 0.029778, 0.062065, 0.966453, 14.819852, -18.049278, 50.742878, 0.086580, -0.041494, 1.029957

149503719.685121, 0.020464, -0.015882, 0.002749, 0.029778, 0.062065, 0.950865, 14.761614, -18.144043, 50.759769, 0.086353, -0.041444, 1.029734

149503719.686169, 0.018021, -0.016799, 0.003665, 0.029778, 0.062065, 0.950865, 14.715023, -18.219854, 50.773281, 0.086114, -0.041413, 1.029588

149503719.687218, 0.018631, -0.014355, 0.000916, 0.029778, 0.093098, 0.966453, 14.718823, -18.178463, 50.784092, 0.086502, -0.041344, 1.029964

149503719.688220, 0.023518, -0.014050, 0.003360, 0.029778, 0.093098, 0.966453, 14.721864, -18.145350, 50.792740, 0.086921, -0.041269, 1.030343

149503719.689268, 0.021991, -0.018021, 0.003971, 0.029778, 0.077582, 0.950865, 14.724296, -18.118858, 50.799656, 0.087036, -0.041256, 1.030455

149503719.690274, 0.020159, -0.016493, 0.003971, 0.029778, 0.077582, 0.950865, 14.808387, -18.077257, 50.805191, 0.087121, -0.041221, 1.030494

149503719.691323, 0.024435, -0.015272, 0.006109, 0.029778, 0.093098, 0.982041, 14.875660, -18.043976, 50.809620, 0.087517, -0.041161, 1.030709

149503719.692373, 0.019853, -0.014661, 0.000916, 0.029778, 0.093098, 0.982041, 14.929479, -18.017351, 50.813160, 0.087861, -0.041092, 1.030822

149503719.693373, 0.019853, -0.013439, 0.000611, -0.000000, 0.093098, 0.966453, 14.951997, -17.975643, 50.839317, 0.088236, -0.040406, 1.029991

149503719.694431, 0.023824, -0.016188, 0.003360, -0.000000, 0.093098, 0.966453, 14.970012, -17.942278, 50.860241, 0.088654, -0.039771, 1.029178

149503719.695435, 0.020464, -0.018937, 0.003971, -0.000000, 0.093098, 0.966453, 14.984424, -17.915585, 50.876980, 0.089019, -0.039168, 1.028365

149503719.696486, 0.018631, -0.019242, 0.000916, 0.014889, 0.077582, 0.982041, 14.995953, -17.894230, 50.890373, 0.089016, -0.038881, 1.027649

149503719.697491, 0.018326, -0.018631, -0.000000, 0.014889, 0.077582, 0.982041, 14.943567, -17.938372, 50.877766, 0.089001, -0.038585, 1.026990

149503719.698539, 0.021380, -0.017104, 0.000916, 0.044666, 0.077582, 0.950865, 14.901659, -17.973684, 50.867680, 0.089071, -0.038927, 1.027489

149503719.699575, 0.013439, -0.017104, 0.002138, 0.044666, 0.077582, 0.950865, 14.868133, -18.001934, 50.859608, 0.089056, -0.039261, 1.028023

149503719.700583, 0.014661, -0.016188, 0.001222, 0.029778, 0.077582, 0.966453, 14.861847, -17.963310, 50.829826, 0.089022, -0.039250, 1.027962

149503719.701639, 0.025656, -0.014661, 0.007025, 0.029778, 0.077582, 0.966453, 14.856819, -17.932411, 50.806004, 0.089107, -0.039237, 1.027953

149503719.702641, 0.023518, -0.017104, 0.005498, 0.029778, 0.077582, 0.966453, 14.852797, -17.907692, 50.786945, 0.089157, -0.039238, 1.027916

149503719.703695, 0.015272, -0.020159, 0.001527, 0.029778, 0.077582, 0.966453, 14.829042, -17.949141, 50.841671, 0.089134, -0.039276, 1.027873

149503719.704696, 0.020159, -0.016493, 0.001527, 0.014889, 0.077582, 0.966453, 14.810039, -17.982300, 50.885448, 0.089157, -0.038958, 1.027365

149503719.705747, 0.018021, -0.015577, 0.002749, 0.014889, 0.077582, 0.966453, 14.794836, -18.008827, 50.920471, 0.089167, -0.038646, 1.026902

149503719.706796, 0.019548, -0.019242, 0.001222, 0.044666, 0.093098, 0.950865, 14.823747, -18.009642, 50.901844, 0.089540, -0.039002, 1.027761

149503719.707798, 0.015882, -0.015882, 0.003054, 0.044666, 0.093098, 0.950865, 14.846875, -18.010292, 50.886940, 0.089859, -0.039311, 1.028607

149503719.708851, 0.014661, -0.014355, 0.002443, 0.014889, 0.062065, 0.966453, 14.865377, -18.010813, 50.875019, 0.089506, -0.038971, 1.027744

149503719.709851, 0.018937, -0.014355, 0.000916, 0.014889, 0.062065, 0.966453, 14.880179, -18.011229, 50.865482, 0.089194, -0.038629, 1.026873

149503719.710903, 0.019242, -0.017715, 0.001527, 0.029778, 0.077582, 0.966453, 14.809875, -17.991154, 50.857853, 0.089211, -0.038654, 1.026884

149503719.711952, 0.022297, -0.015577, 0.001222, 0.029778, 0.077582, 0.966453, 14.753633, -17.975094, 50.851749, 0.089258, -0.038656, 1.026924

149503719.712952, 0.020769, -0.014966, 0.002443, 0.014889, 0.077582, 0.950865, 14.708638, -17.962246, 50.846867, 0.089309, -0.038342, 1.026535

149503719.713999, 0.018326, -0.017410, 0.001833, 0.014889, 0.077582, 0.950865, 14.754788, -17.951967, 50.889606, 0.089343, -0.038065, 1.026112

149503719.715047, 0.013439, -0.017715, 0.000916, 0.029778, 0.093098, 0.950865, 14.791708, -17.943745, 50.923798, 0.089646, -0.038108, 1.026471

149503719.716047, 0.021686, -0.014661, 0.002443, 0.029778, 0.093098, 0.950865, 14.821244, -17.937166, 50.951153, 0.090015, -0.038113, 1.026820

149503719.717096, 0.025045, -0.015882, 0.000611, 0.029778, 0.077582, 0.935277, 14.824337, -17.952312, 50.996361, 0.090128, -0.038148, 1.026891

149503719.718097, 0.014966, -0.021075, 0.002138, 0.029778, 0.077582, 0.935277, 14.826811, -17.964430, 51.032524, 0.090127, -0.038228, 1.026977

149503719.719146, 0.016799, -0.017104, -0.000611, 0.029778, 0.093098, 0.966453, 14.828790, -17.974123, 51.061455, 0.090418, -0.038250, 1.027253

149503719.720163, 0.013134, -0.012217, 0.000916, 0.029778, 0.093098, 0.966453, 14.830373, -17.981878, 51.084602, 0.090660, -0.038220, 1.027548

149503719.721216, 0.016493, -0.013439, 0.004581, 0.029778, 0.093098, 0.982041, 14.831639, -18.008490, 51.009823, 0.090905, -0.038201, 1.027835

149503719.722221, 0.018937, -0.018021, 0.004276, 0.029778, 0.093098, 0.982041, 14.832653, -18.029779, 50.950001, 0.091162, -0.038221, 1.028111

149503719.723270, 0.019853, -0.013134, 0.005498, 0.029778, 0.093098, 0.966453, 14.833464, -18.046810, 50.902142, 0.091460, -0.038209, 1.028446

149503719.724318, 0.018631, -0.017715, 0.004276, 0.044666, 0.062065, 0.966453, 14.731430, -17.999210, 50.887180, 0.091105, -0.038555, 1.028723

149503719.725319, 0.024740, -0.017715, 0.005803, 0.044666, 0.062065, 0.966453, 14.649803, -17.961132, 50.875210, 0.090808, -0.038888, 1.029048

149503719.726372, 0.020464, -0.012828, 0.004887, 0.059555, 0.062065, 0.966453, 14.584502, -17.930668, 50.865635, 0.090494, -0.039486, 1.029947

149503719.727375, 0.016799, -0.012828, 0.004276, 0.059555, 0.062065, 0.966453, 14.573334, -17.906298, 50.904621, 0.090140, -0.040065, 1.030822

149503719.728424, 0.014355, -0.015272, 0.002749, 0.044666, 0.077582, 0.950865, 14.564400, -17.886801, 50.935810, 0.090115, -0.040361, 1.031467

149503719.729476, 0.018021, -0.015272, 0.004276, 0.044666, 0.077582, 0.950865, 14.557252, -17.871204, 50.960762, 0.090127, -0.040653, 1.032116

149503719.730480, 0.025962, -0.013439, 0.004581, 0.014889, 0.062065, 0.966453, 14.674752, -17.940359, 51.027370, 0.089872, -0.040272, 1.031305

149503719.731530, 0.019853, -0.014661, 0.002443, 0.014889, 0.062065, 0.966453, 14.768752, -17.995682, 51.080658, 0.089571, -0.039916, 1.030453

149503719.732532, 0.017715, -0.011912, 0.004276, 0.044666, 0.062065, 0.966453, 14.843952, -18.039940, 51.123287, 0.089236, -0.040161, 1.030646

149503719.733584, 0.018631, -0.011912, 0.007330, 0.044666, 0.062065, 0.966453, 14.904112, -18.075348, 51.157391, 0.088924, -0.040410, 1.030842

149503719.734632, 0.018631, -0.014966, 0.004581, 0.029778, 0.062065, 0.950865, 14.890631, -18.083265, 51.068054, 0.088641, -0.040380, 1.030524

149503719.735632, 0.023824, -0.015272, 0.004581, 0.029778, 0.062065, 0.950865, 14.879846, -18.089600, 50.996586, 0.088405, -0.040347, 1.030217

149503719.736683, 0.028100, -0.019242, 0.005803, 0.029778, 0.077582, 0.982041, 14.871218, -18.094667, 50.939411, 0.088503, -0.040347, 1.030168

149503719.737694, 0.021380, -0.019242, 0.004887, 0.029778, 0.077582, 0.982041, 14.864315, -18.119129, 50.916996, 0.088520, -0.040338, 1.030123

149503719.738744, 0.020769, -0.015882, 0.003360, 0.044666, 0.077582, 0.966453, 14.858793, -18.138699, 50.899063, 0.088566, -0.040620, 1.030630

149503719.739750, 0.026878, -0.017410, 0.002749, 0.044666, 0.077582, 0.966453, 14.854376, -18.154354, 50.884716, 0.088663, -0.040904, 1.031127

149503719.740800, 0.024435, -0.017410, 0.003971, 0.044666, 0.077582, 0.982041, 14.830306, -18.105654, 50.896561, 0.088717, -0.041176, 1.031578

149503719.741801, 0.018021, -0.013134, 0.002138, 0.044666, 0.077582, 0.982041, 14.811049, -18.066694, 50.906036, 0.088697, -0.041391, 1.032002

149503719.742850, 0.022297, -0.014966, 0.001222, 0.029778, 0.077582, 0.950865, 14.795645, -18.035526, 50.913616, 0.088781, -0.041341, 1.031982

149503719.743890, 0.015882, -0.015577, 0.000305, 0.029778, 0.077582, 0.950865, 14.783320, -18.010592, 50.919682, 0.088796, -0.041297, 1.031951

149503719.744936, 0.021075, -0.015882, 0.000305, 0.044666, 0.062065, 0.966453, 14.835071, -18.011053, 50.901211, 0.088519, -0.041557, 1.032052

149503719.745937, 0.016799, -0.015272, -0.001527, 0.044666, 0.062065, 0.966453, 14.876471, -18.011421, 50.886433, 0.088198, -0.041796, 1.032106

149503719.746989, 0.019242, -0.014966, 0.004581, 0.029778, 0.077582, 0.966453, 14.909591, -18.011717, 50.874611, 0.088234, -0.041732, 1.031989

149503719.747992, 0.019853, -0.016188, 0.004887, 0.029778, 0.077582, 0.966453, 14.833405, -17.991545, 50.818504, 0.088265, -0.041673, 1.031914

149503719.749040, 0.024435, -0.016799, 0.003971, 0.029778, 0.077582, 0.966453, 14.772456, -17.975407, 50.773621, 0.088352, -0.041629, 1.031865

149503719.750087, 0.023518, -0.011912, 0.004276, 0.029778, 0.077582, 0.966453, 14.723698, -17.962496, 50.737713, 0.088428, -0.041536, 1.031849

149503719.751094, 0.023824, -0.015882, 0.006414, 0.029778, 0.077582, 0.966453, 14.705227, -17.972576, 50.848930, 0.088494, -0.041481, 1.031873

149503719.752144, 0.018937, -0.015272, 0.003054, 0.044666, 0.077582, 0.966453, 14.690450, -17.980640, 50.937904, 0.088522, -0.041734, 1.032399

149503719.753148, 0.016799, -0.017410, 0.002443, 0.044666, 0.077582, 0.966453, 14.678628, -17.987091, 51.009087, 0.088520, -0.041995, 1.032922

149503719.754203, 0.018326, -0.015272, -0.000916, 0.044666, 0.077582, 0.966453, 14.689708, -18.033068, 50.996059, 0.088543, -0.042234, 1.033412

149503719.755203, 0.018326, -0.015882, 0.001222, 0.044666, 0.077582, 0.966453, 14.698571, -18.069849, 50.985638, 0.088555, -0.042468, 1.033920

149503719.756252, 0.014661, -0.015577, 0.003054, 0.029778, 0.062065, 0.966453, 14.705662, -18.099274, 50.977299, 0.088218, -0.042392, 1.033614

149503719.757303, 0.023518, -0.014661, 0.001222, 0.029778, 0.062065, 0.966453, 14.711334, -18.122814, 50.970627, 0.087980, -0.042307, 1.033301

149503719.758303, 0.024740, -0.016799, 0.002138, 0.059555, 0.062065, 0.935277, 14.715873, -18.060015, 50.941967, 0.087797, -0.042905, 1.034159

149503719.759369, 0.025962, -0.015577, 0.000305, 0.059555, 0.062065, 0.935277, 14.719503, -18.009775, 50.919041, 0.087647, -0.043487, 1.034960

149503719.760375, 0.021686, -0.014966, 0.001222, 0.029778, 0.077582, 0.982041, 14.722407, -17.969584, 50.900700, 0.087685, -0.043369, 1.034820

149503719.761427, 0.022297, -0.015577, 0.003665, 0.029778, 0.077582, 0.982041, 14.704194, -17.978247, 50.932674, 0.087738, -0.043269, 1.034725

149503719.762433, 0.018937, -0.014355, 0.001222, 0.029778, 0.077582, 0.966453, 14.689624, -17.985176, 50.958252, 0.087772, -0.043159, 1.034662

149503719.763491, 0.017715, -0.017410, -0.000000, 0.029778, 0.077582, 0.966453, 14.677968, -17.990721, 50.978714, 0.087803, -0.043090, 1.034597

149503719.764497, 0.016493, -0.012217, -0.000000, 0.029778, 0.077582, 0.950865, 14.668643, -17.995155, 50.948437, 0.087838, -0.042972, 1.034585

149503719.765548, 0.022602, -0.017410, 0.004276, 0.029778, 0.077582, 0.950865, 14.661183, -17.998703, 50.924213, 0.087941, -0.042919, 1.034618

149503719.766550, 0.017715, -0.013744, 0.003054, 0.014889, 0.077582, 0.982041, 14.655215, -18.001541, 50.904835, 0.087940, -0.042497, 1.034069

149503719.767599, 0.020464, -0.016799, 0.001527, 0.014889, 0.077582, 0.982041, 14.650441, -18.003813, 50.889332, 0.087976, -0.042121, 1.033515

149503719.768603, 0.016493, -0.018326, 0.003665, -0.000000, 0.093098, 0.950865, 14.646622, -18.005629, 50.876930, 0.088343, -0.041464, 1.032888

149503719.769651, 0.021380, -0.014661, 0.002443, -0.000000, 0.093098, 0.950865, 14.643566, -18.007082, 50.867008, 0.088761, -0.040790, 1.032266

149503719.770704, 0.023518, -0.017715, 0.003360, 0.044666, 0.077582, 0.950865, 14.641122, -18.008245, 50.859074, 0.088857, -0.041097, 1.032875

149503719.771709, 0.019548, -0.019548, 0.002443, 0.044666, 0.077582, 0.950865, 14.659702, -18.009176, 50.829399, 0.088902, -0.041407, 1.033447

149503719.772761, 0.021686, -0.017410, 0.001527, 0.044666, 0.077582, 0.966453, 14.674567, -18.009920, 50.805660, 0.088951, -0.041682, 1.033938

149503719.773762, 0.023213, -0.019853, 0.003360, 0.044666, 0.077582, 0.966453, 14.686459, -18.010515, 50.786671, 0.089002, -0.041968, 1.034427

149503719.774811, 0.015577, -0.015272, -0.000000, 0.029778, 0.093098, 0.950865, 14.695971, -17.949766, 50.794804, 0.089333, -0.041907, 1.034669

149503719.775862, 0.021686, -0.014966, 0.002443, 0.029778, 0.093098, 0.950865, 14.703582, -17.901167, 50.801308, 0.089720, -0.041847, 1.034909

149503719.776864, 0.020464, -0.013744, 0.001222, 0.029778, 0.077582, 0.950865, 14.709670, -17.862288, 50.806511, 0.089755, -0.041769, 1.034814

149503719.777913, 0.021075, -0.014966, 0.002443, 0.029778, 0.077582, 0.950865, 14.735077, -17.872002, 50.787350, 0.089805, -0.041713, 1.034719

149503719.778914, 0.023824, -0.015882, 0.002749, 0.029778, 0.077582, 0.919689, 14.755403, -17.879772, 50.772022, 0.089926, -0.041682, 1.034703

149503719.779963, 0.022297, -0.017410, 0.002443, 0.029778, 0.077582, 0.919689, 14.771664, -17.885988, 50.759758, 0.090039, -0.041673, 1.034674

149503719.781011, 0.020769, -0.016188, 0.002138, 0.029778, 0.077582, 0.982041, 14.784672, -17.890961, 50.749947, 0.090030, -0.041611, 1.034467

149503719.782011, 0.019548, -0.018326, 0.000916, 0.014889, 0.093098, 0.966453, 14.754006, -17.854122, 50.812069, 0.090346, -0.041266, 1.034108

149503719.783061, 0.018937, -0.016493, 0.002138, 0.014889, 0.093098, 0.966453, 14.729474, -17.824652, 50.861767, 0.090659, -0.040919, 1.033776

149503719.784063, 0.020769, -0.018021, 0.002138, 0.044666, 0.077582, 0.982041, 14.709847, -17.801075, 50.901527, 0.090627, -0.041187, 1.034118

149503719.785111, 0.016799, -0.018937, 0.003971, 0.044666, 0.077582, 0.982041, 14.755755, -17.761806, 50.863361, 0.090563, -0.041469, 1.034422

149503719.786159, 0.019548, -0.017410, 0.003054, 0.014889, 0.077582, 0.935277, 14.792482, -17.730392, 50.832829, 0.090616, -0.041135, 1.033772

149503719.787179, 0.016493, -0.019242, 0.004276, 0.014889, 0.077582, 0.935277, 14.821863, -17.705261, 50.808403, 0.090631, -0.040822, 1.033115

149503719.788183, 0.020769, -0.016799, 0.001222, 0.014889, 0.062065, 0.966453, 14.783759, -17.746380, 50.812187, 0.090319, -0.040466, 1.032084

149503719.789231, 0.022297, -0.016188, 0.002443, 0.014889, 0.062065, 0.966453, 14.753276, -17.779274, 50.815216, 0.090035, -0.040119, 1.031121

149503719.790247, 0.023213, -0.014355, 0.001833, 0.014889, 0.077582, 0.966453, 14.728889, -17.805590, 50.817638, 0.090075, -0.039765, 1.030529

149503719.791277, 0.019548, -0.022297, 0.003665, 0.014889, 0.077582, 0.966453, 14.709380, -17.847052, 50.819576, 0.090079, -0.039501, 1.029990

149503719.792331, 0.018631, -0.018021, 0.004581, 0.029778, 0.062065, 0.982041, 14.693772, -17.880220, 50.821125, 0.089732, -0.039501, 1.029647

149503719.793337, 0.020464, -0.017410, 0.003054, 0.029778, 0.062065, 0.982041, 14.681287, -17.906755, 50.822365, 0.089403, -0.039485, 1.029313

149503719.794387, 0.023518, -0.017715, 0.002443, 0.029778, 0.077582, 0.966453, 14.671298, -17.927984, 50.823357, 0.089459, -0.039494, 1.029350

149503719.795440, 0.016799, -0.014355, 0.004276, 0.029778, 0.077582, 0.966453, 14.663307, -17.904150, 50.870800, 0.089443, -0.039469, 1.029407

149503719.796442, 0.016493, -0.016799, 0.003360, 0.029778, 0.093098, 0.950865, 14.656915, -17.885082, 50.908752, 0.089766, -0.039469, 1.029790

149503719.797493, 0.014050, -0.015577, 0.001222, 0.029778, 0.093098, 0.950865, 14.651800, -17.869829, 50.939114, 0.090066, -0.039462, 1.030145

149503719.798495, 0.020769, -0.011606, 0.000916, 0.059555, 0.108614, 0.966453, 14.647709, -17.857626, 50.870110, 0.090723, -0.039994, 1.031730

149503719.799545, 0.018021, -0.016799, 0.003971, 0.059555, 0.108614, 0.966453, 14.644436, -17.847864, 50.814903, 0.091347, -0.040577, 1.033303

149503719.800597, 0.020464, -0.014050, 0.003054, 0.044666, 0.062065, 0.966453, 14.641817, -17.840054, 50.770741, 0.091014, -0.040836, 1.033465

149503719.801600, 0.022907, -0.011912, 0.003665, 0.044666, 0.062065, 0.966453, 14.660258, -17.874622, 50.782059, 0.090701, -0.041063, 1.033632

149503719.802649, 0.020159, -0.013134, 0.002138, 0.029778, 0.077582, 0.950865, 14.675012, -17.902277, 50.791111, 0.090722, -0.041002, 1.033611

149503719.803650, 0.021380, -0.017410, 0.003971, 0.029778, 0.077582, 0.950865, 14.686814, -17.924400, 50.798355, 0.090745, -0.040980, 1.033606

149503719.804703, 0.014050, -0.014966, 0.002443, 0.029778, 0.077582, 0.950865, 14.696257, -17.942099, 50.804150, 0.090703, -0.040941, 1.033589

149503719.805704, 0.024129, -0.017715, 0.002443, 0.029778, 0.077582, 0.950865, 14.765419, -17.956259, 50.832108, 0.090754, -0.040921, 1.033530

149503719.806753, 0.028100, -0.014966, 0.002749, 0.029778, 0.093098, 0.966453, 14.820749, -17.967587, 50.854473, 0.091147, -0.040871, 1.033703

149503719.807807, 0.020159, -0.014355, 0.003054, 0.029778, 0.093098, 0.966453, 14.865013, -17.976648, 50.872368, 0.091451, -0.040817, 1.033852

149503719.808811, 0.019242, -0.017104, 0.004887, 0.029778, 0.093098, 0.966453, 14.777206, -18.004307, 50.910007, 0.091730, -0.040786, 1.034082

149503719.809861, 0.021380, -0.016188, 0.004581, 0.014889, 0.093098, 0.966453, 14.706961, -18.026432, 50.940121, 0.092038, -0.040448, 1.033873

149503719.810866, 0.020159, -0.015882, 0.005192, 0.014889, 0.093098, 0.966453, 14.650764, -18.044132, 50.964211, 0.092317, -0.040106, 1.033718

149503719.811920, 0.022907, -0.017715, 0.003054, 0.029778, 0.077582, 0.935277, 14.729026, -17.997068, 50.936832, 0.092362, -0.040124, 1.033752

149503719.812920, 0.016493, -0.014966, 0.003971, 0.029778, 0.077582, 0.935277, 14.791635, -17.959417, 50.914932, 0.092331, -0.040105, 1.033739

149503719.813967, 0.017104, -0.012828, 0.002749, 0.044666, 0.062065, 0.966453, 14.841722, -17.929296, 50.897411, 0.091942, -0.040359, 1.033793

149503719.815020, 0.016799, -0.015272, 0.002443, 0.044666, 0.062065, 0.966453, 14.799645, -17.966425, 50.883396, 0.091559, -0.040634, 1.033885

149503719.816024, 0.015577, -0.018326, 0.003054, 0.029778, 0.077582, 0.950865, 14.765985, -17.996128, 50.872181, 0.091509, -0.040628, 1.033843

149503719.817067, 0.021686, -0.017104, 0.002138, 0.029778, 0.077582, 0.950865, 14.739057, -18.019890, 50.863209, 0.091529, -0.040615, 1.033822

149503719.818077, 0.020159, -0.016493, 0.002443, 0.029778, 0.062065, 0.982041, 14.717514, -18.038898, 50.856033, 0.091162, -0.040567, 1.033433

149503719.819134, 0.018021, -0.019548, 0.003665, 0.029778, 0.062065, 0.982041, 14.761889, -18.054106, 50.850292, 0.090789, -0.040560, 1.033039

149503719.820135, 0.014661, -0.018631, 0.003360, 0.044666, 0.062065, 0.950865, 14.797388, -18.066273, 50.845699, 0.090421, -0.040873, 1.033238

149503719.821186, 0.017715, -0.017715, 0.002138, 0.044666, 0.062065, 0.950865, 14.825788, -18.076006, 50.842026, 0.090099, -0.041178, 1.033407

149503719.822237, 0.017715, -0.014355, 0.002443, 0.029778, 0.077582, 0.950865, 14.786900, -18.063383, 50.862408, 0.090107, -0.041128, 1.033386

149503719.823238, 0.020159, -0.016188, 0.003971, 0.029778, 0.077582, 0.950865, 14.755788, -18.053286, 50.878716, 0.090130, -0.041092, 1.033395

149503719.824287, 0.017410, -0.013439, 0.002138, 0.044666, 0.046549, 0.950865, 14.730899, -18.045208, 50.891762, 0.089484, -0.041345, 1.033294

149503719.825293, 0.020159, -0.013744, 0.003054, 0.044666, 0.046549, 0.950865, 14.710988, -18.038746, 50.855549, 0.088871, -0.041591, 1.033213

149503719.826346, 0.024129, -0.016188, 0.002138, 0.014889, 0.077582, 0.950865, 14.695059, -18.033575, 50.826580, 0.088977, -0.041238, 1.032731

149503719.827397, 0.019242, -0.017715, -0.000916, 0.014889, 0.077582, 0.950865, 14.682316, -18.029440, 50.803406, 0.089030, -0.040905, 1.032232

149503719.828441, 0.015272, -0.012828, 0.002443, 0.044666, 0.077582, 0.966453, 14.672121, -18.128172, 50.784866, 0.089009, -0.041143, 1.032807

149503719.829441, 0.013439, -0.016188, 0.002443, 0.044666, 0.077582, 0.966453, 14.643429, -18.207157, 50.793358, 0.088964, -0.041404, 1.033417

149503719.830485, 0.018631, -0.018937, 0.002443, 0.014889, 0.093098, 0.935277, 14.620476, -18.270346, 50.800152, 0.089359, -0.041087, 1.033413

149503719.831488, 0.021380, -0.016493, 0.001222, 0.014889, 0.093098, 0.935277, 14.602113, -18.320896, 50.805588, 0.089766, -0.040745, 1.033429

149503719.832548, 0.014661, -0.014661, 0.001833, 0.014889, 0.062065, 0.982041, 14.690104, -18.238888, 50.833260, 0.089395, -0.040376, 1.032646

149503719.833556, 0.015577, -0.016799, 0.001833, 0.014889, 0.062065, 0.982041, 14.760498, -18.173281, 50.855396, 0.089034, -0.040027, 1.031803

149503719.834606, 0.024129, -0.014966, 0.004887, 0.029778, 0.077582, 0.966453, 14.816813, -18.120796, 50.873104, 0.089103, -0.039998, 1.031800

149503719.835607, 0.018937, -0.013134, 0.003665, 0.029778, 0.077582, 0.966453, 14.820791, -18.017584, 50.840626, 0.089108, -0.039944, 1.031740

149503719.836660, 0.020769, -0.015882, 0.002749, 0.029778, 0.077582, 0.966453, 14.823975, -17.935013, 50.814640, 0.089142, -0.039924, 1.031633

149503719.837664, 0.024740, -0.021075, 0.005498, 0.029778, 0.077582, 0.966453, 14.826521, -17.868958, 50.793854, 0.089204, -0.039951, 1.031522

149503719.838715, 0.029016, -0.018326, 0.008858, 0.029778, 0.077582, 0.966453, 14.746412, -17.877337, 50.847195, 0.089319, -0.039962, 1.031511

149503719.839717, 0.021075, -0.017104, 0.005498, 0.059555, 0.062065, 0.950865, 14.682325, -17.884041, 50.889870, 0.089050, -0.040592, 1.032331

149503719.840767, 0.021075, -0.013134, 0.004581, 0.059555, 0.062065, 0.950865, 14.631056, -17.889404, 50.924007, 0.088797, -0.041177, 1.033172

149503719.841816, 0.018326, -0.013439, 0.001222, 0.044666, 0.077582, 0.982041, 14.590040, -17.893694, 50.951321, 0.088787, -0.041401, 1.033644

149503719.842818, 0.015577, -0.016799, 0.002443, 0.044666, 0.077582, 0.982041, 14.639374, -17.917534, 50.949844, 0.088742, -0.041648, 1.034090

149503719.843856, 0.022907, -0.014661, 0.002749, 0.029778, 0.077582, 0.950865, 14.678841, -17.936605, 50.948666, 0.088828, -0.041590, 1.034084

149503719.844909, 0.023518, -0.015272, 0.001527, 0.029778, 0.077582, 0.950865, 14.710414, -17.951864, 50.947720, 0.088922, -0.041540, 1.034050

149503719.845911, 0.018021, -0.014050, 0.003971, 0.029778, 0.077582, 0.966453, 14.735672, -17.964071, 50.946964, 0.088922, -0.041464, 1.033989

149503719.846964, 0.020464, -0.015882, 0.001222, 0.029778, 0.077582, 0.966453, 14.755878, -17.973837, 50.946362, 0.088958, -0.041413, 1.033890

149503719.847966, 0.023213, -0.012828, 0.001833, 0.029778, 0.077582, 0.966453, 14.772044, -17.981649, 50.945877, 0.089009, -0.041325, 1.033794

149503719.849014, 0.020464, -0.012523, -0.000916, 0.029778, 0.077582, 0.966453, 14.764441, -17.987898, 50.898842, 0.089042, -0.041240, 1.033677

149503719.850062, 0.018631, -0.017410, 0.003054, 0.029778, 0.062065, 0.982041, 14.758357, -17.992897, 50.861214, 0.088717, -0.041195, 1.033251

149503719.851065, 0.022297, -0.016188, 0.000916, 0.029778, 0.062065, 0.982041, 14.753490, -17.996897, 50.831112, 0.088427, -0.041130, 1.032815

149503719.852113, 0.023824, -0.016188, 0.003665, 0.014889, 0.046549, 0.966453, 14.749598, -17.938871, 50.900326, 0.087880, -0.040759, 1.031577

149503719.853161, 0.024435, -0.013439, 0.005498, 0.014889, 0.046549, 0.966453, 14.787556, -17.892452, 50.955696, 0.087350, -0.040369, 1.030340

149503719.854167, 0.021380, -0.015272, 0.004581, 0.029778, 0.062065, 0.950865, 14.817923, -17.855316, 50.999992, 0.087118, -0.040336, 1.029981

149503719.855216, 0.021686, -0.015272, 0.004581, 0.029778, 0.062065, 0.950865, 14.842216, -17.825607, 51.035431, 0.086903, -0.040310, 1.029602

149503719.856217, 0.023213, -0.015272, 0.002443, 0.044666, 0.077582, 0.966453, 14.820578, -17.822248, 50.970486, 0.086996, -0.040578, 1.030019

149503719.857265, 0.022907, -0.018021, 0.000305, 0.044666, 0.077582, 0.966453, 14.803267, -17.819561, 50.918530, 0.087095, -0.040873, 1.030411

149503719.858317, 0.021686, -0.018937, 0.002138, 0.044666, 0.062065, 0.966453, 14.789419, -17.817411, 50.876965, 0.086859, -0.041175, 1.030511

149503719.859319, 0.021075, -0.017104, 0.002138, 0.044666, 0.062065, 0.966453, 14.778340, -17.815693, 50.843712, 0.086612, -0.041443, 1.030615

149503719.860369, 0.020769, -0.014355, 0.003665, 0.029778, 0.077582, 0.950865, 14.769477, -17.814318, 50.817112, 0.086721, -0.041389, 1.030572

149503719.861370, 0.017715, -0.015577, 0.002749, 0.029778, 0.077582, 0.950865, 14.762386, -17.813217, 50.795830, 0.086788, -0.041340, 1.030522

149503719.862420, 0.021380, -0.016188, 0.005192, 0.029778, 0.124131, 0.997629, 14.736177, -17.812336, 50.802128, 0.087743, -0.041264, 1.031222

149503719.863467, 0.022297, -0.016493, 0.003971, 0.029778, 0.124131, 0.997629, 14.715211, -17.811632, 50.807167, 0.088688, -0.041192, 1.031908

149503719.864479, 0.021686, -0.018021, 0.003665, 0.029778, 0.093098, 0.966453, 14.698438, -17.811069, 50.811199, 0.089048, -0.041162, 1.032138

149503719.865489, 0.022602, -0.014661, 0.002443, 0.029778, 0.093098, 0.966453, 14.685019, -17.810619, 50.814426, 0.089410, -0.041098, 1.032363

149503719.866538, 0.024740, -0.017410, 0.001833, 0.029778, 0.093098, 0.966453, 14.735892, -17.851074, 50.723709, 0.089795, -0.041068, 1.032551

149503719.867587, 0.022602, -0.014661, 0.002749, 0.029778, 0.077582, 0.950865, 14.776591, -17.883438, 50.651138, 0.089860, -0.041023, 1.032473

149503719.868592, 0.017715, -0.013744, 0.003971, 0.029778, 0.077582, 0.950865, 14.809151, -17.909330, 50.593079, 0.089865, -0.040965, 1.032396

149503719.869642, 0.024740, -0.013439, 0.005803, 0.014889, 0.093098, 0.966453, 14.753053, -17.909636, 50.569954, 0.090245, -0.040596, 1.032143

149503719.870644, 0.021991, -0.015577, 0.002749, 0.014889, 0.093098, 0.966453, 14.708175, -17.909880, 50.551456, 0.090579, -0.040247, 1.031890

149503719.871698, 0.023213, -0.016188, 0.005192, 0.029778, 0.062065, 0.982041, 14.672272, -17.910074, 50.536659, 0.090270, -0.040213, 1.031530

149503719.872715, 0.020464, -0.020769, 0.001833, 0.029778, 0.062065, 0.982041, 14.684623, -17.910231, 50.571468, 0.089933, -0.040216, 1.031132

149503719.873769, 0.016799, -0.017410, 0.001833, 0.029778, 0.062065, 0.982041, 14.694503, -17.910355, 50.599316, 0.089572, -0.040192, 1.030739

149503719.874772, 0.014661, -0.014050, 0.003360, 0.029778, 0.062065, 0.982041, 14.702407, -17.910454, 50.621593, 0.089188, -0.040129, 1.030368

149503719.875818, 0.017104, -0.015882, -0.000916, 0.029778, 0.077582, 0.950865, 14.647121, -17.971758, 50.592766, 0.089209, -0.040113, 1.030414

149503719.876832, 0.019853, -0.017104, 0.001833, 0.029778, 0.077582, 0.950865, 14.602893, -18.020802, 50.569706, 0.089250, -0.040106, 1.030534

149503719.877884, 0.020464, -0.016188, 0.004887, 0.029778, 0.062065, 0.950865, 14.567511, -18.060036, 50.551258, 0.088979, -0.040097, 1.030409

149503719.878890, 0.027794, -0.016188, 0.004887, 0.029778, 0.062065, 0.950865, 14.539205, -18.091423, 50.536499, 0.088776, -0.040082, 1.030315

149503719.879945, 0.023824, -0.015272, 0.004581, 0.029778, 0.077582, 0.950865, 14.619242, -18.034901, 50.594666, 0.088873, -0.040066, 1.030463

149503719.880947, 0.021991, -0.017410, 0.006720, 0.029778, 0.077582, 0.950865, 14.683271, -17.989683, 50.641197, 0.088938, -0.040066, 1.030567

149503719.881994, 0.020464, -0.013744, 0.002749, 0.029778, 0.077582, 0.950865, 14.734495, -17.953510, 50.678425, 0.088997, -0.040032, 1.030588

149503719.883048, 0.018326, -0.016493, -0.000611, 0.029778, 0.077582, 0.950865, 14.754937, -17.924572, 50.684879, 0.089036, -0.040024, 1.030546

149503719.884064, 0.016188, -0.016188, 0.003665, 0.029778, 0.062065, 0.950865, 14.771291, -17.901421, 50.690044, 0.088720, -0.040008, 1.030208

149503719.885069, 0.021075, -0.015272, 0.001833, 0.029778, 0.062065, 0.950865, 14.784374, -17.882900, 50.694176, 0.088459, -0.039980, 1.029844

149503719.886122, 0.021380, -0.016493, 0.001833, 0.044666, 0.077582, 0.966453, 14.774304, -17.847675, 50.744129, 0.088513, -0.040274, 1.030276

149503719.887172, 0.021991, -0.018021, 0.000611, 0.044666, 0.077582, 0.966453, 14.766249, -17.819494, 50.784092, 0.088573, -0.040576, 1.030682

149503719.888173, 0.022297, -0.015272, 0.000916, 0.044666, 0.093098, 0.966453, 14.759804, -17.796949, 50.816063, 0.088943, -0.040832, 1.031373

149503719.889223, 0.015577, -0.015272, 0.001222, 0.044666, 0.093098, 0.966453, 14.754648, -17.778913, 50.841640, 0.089247, -0.041090, 1.032051

149503719.890224, 0.016493, -0.015577, 0.003665, 0.029778, 0.077582, 0.982041, 14.812133, -17.805302, 50.838779, 0.089201, -0.041027, 1.031863

149503719.891272, 0.021991, -0.016799, 0.003360, 0.029778, 0.077582, 0.982041, 14.858120, -17.826412, 50.836491, 0.089220, -0.040984, 1.031653

149503719.892320, 0.019853, -0.011606, 0.003054, 0.029778, 0.077582, 0.966453, 14.894910, -17.843300, 50.834660, 0.089241, -0.040899, 1.031473

149503719.893320, 0.020769, -0.015272, 0.002138, 0.029778, 0.077582, 0.966453, 14.862733, -17.836403, 50.856518, 0.089263, -0.040846, 1.031303

149503719.894371, 0.019242, -0.016493, 0.002138, 0.029778, 0.062065, 0.982041, 14.836991, -17.830885, 50.874004, 0.088940, -0.040798, 1.030793

149503719.895430, 0.014966, -0.020159, 0.002443, 0.044666, 0.062065, 0.982041, 14.816398, -17.826471, 50.887993, 0.088579, -0.041101, 1.030826

149503719.896434, 0.014966, -0.019242, 0.002138, 0.044666, 0.062065, 0.982041, 14.799923, -17.802532, 50.899181, 0.088217, -0.041377, 1.030859

149503719.897483, 0.026267, -0.015882, 0.004581, 0.044666, 0.062065, 0.966453, 14.786743, -17.783381, 50.908134, 0.088005, -0.041639, 1.030967

149503719.898489, 0.019853, -0.015272, 0.002443, 0.044666, 0.062065, 0.966453, 14.776199, -17.768059, 50.915295, 0.087723, -0.041880, 1.031052

149503719.899538, 0.020769, -0.014966, 0.003054, 0.029778, 0.077582, 0.950865, 14.767764, -17.776211, 50.921024, 0.087810, -0.041823, 1.030985

149503719.900539, 0.018937, -0.013134, 0.002138, 0.029778, 0.077582, 0.950865, 14.761016, -17.782732, 50.925610, 0.087867, -0.041740, 1.030918

149503719.901594, 0.019242, -0.012523, 0.003054, 0.029778, 0.077582, 0.966453, 14.755618, -17.787949, 50.929276, 0.087911, -0.041651, 1.030827

149503719.902597, 0.022602, -0.012523, 0.004581, 0.029778, 0.077582, 0.966453, 14.751300, -17.792122, 50.932209, 0.087976, -0.041558, 1.030757

149503719.903645, 0.020464, -0.014050, 0.003360, 0.029778, 0.062065, 0.950865, 14.747845, -17.815868, 50.887909, 0.087731, -0.041494, 1.030404

149503719.904695, 0.018631, -0.015882, 0.002443, 0.029778, 0.062065, 0.950865, 14.745081, -17.834866, 50.852467, 0.087473, -0.041450, 1.030056

149503719.905696, 0.018631, -0.014050, 0.000305, 0.014889, 0.077582, 0.950865, 14.742869, -17.850063, 50.824116, 0.087542, -0.041069, 1.029515

149503719.906744, 0.021380, -0.016493, -0.000916, 0.014889, 0.077582, 0.950865, 14.741100, -17.882629, 50.871407, 0.087646, -0.040726, 1.028986

149503719.907747, 0.013744, -0.020769, 0.000305, 0.044666, 0.093098, 0.966453, 14.739685, -17.908682, 50.909237, 0.087951, -0.041032, 1.029760

149503719.908800, 0.019853, -0.019548, 0.002443, 0.044666, 0.093098, 0.966453, 14.738553, -17.929525, 50.939503, 0.088319, -0.041330, 1.030552

149503719.909851, 0.013439, -0.017104, -0.000611, 0.029778, 0.062065, 0.966453, 14.737647, -17.925791, 50.987038, 0.087977, -0.041289, 1.030180

149503719.910853, 0.018937, -0.014966, 0.002443, 0.029778, 0.062065, 0.966453, 14.736922, -17.922804, 51.025066, 0.087687, -0.041223, 1.029849

149503719.911905, 0.027184, -0.017715, 0.003971, 0.044666, 0.077582, 0.966453, 14.736342, -17.920414, 51.055489, 0.087816, -0.041506, 1.030376

149503719.912904, 0.022602, -0.017104, 0.001527, 0.044666, 0.077582, 0.966453, 14.735879, -17.918503, 51.079826, 0.087884, -0.041767, 1.030869

149503719.913953, 0.025351, -0.017715, 0.003971, 0.014889, 0.093098, 0.935277, 14.714972, -17.978197, 51.052650, 0.088372, -0.041434, 1.030773

149503719.915003, 0.027184, -0.018326, 0.004581, 0.014889, 0.093098, 0.935277, 14.698246, -18.025953, 51.030910, 0.088868, -0.041115, 1.030713

149503719.916003, 0.021991, -0.014050, 0.003054, 0.014889, 0.108614, 0.950865, 14.684865, -18.064157, 51.013515, 0.089578, -0.040741, 1.030915

149503719.917050, 0.020159, -0.012523, 0.003665, 0.014889, 0.108614, 0.950865, 14.653625, -18.053905, 50.882980, 0.090265, -0.040367, 1.031130

149503719.918050, 0.020464, -0.015577, 0.002138, 0.029778, 0.077582, 0.935277, 14.628632, -18.045704, 50.778553, 0.090314, -0.040348, 1.031286

149503719.919099, 0.019242, -0.016188, 0.001833, 0.029778, 0.077582, 0.935277, 14.608638, -18.039143, 50.695011, 0.090360, -0.040344, 1.031442

149503719.920148, 0.019853, -0.014050, 0.003054, 0.029778, 0.077582, 0.982041, 14.633716, -18.013485, 50.698151, 0.090333, -0.040288, 1.031458

149503719.921156, 0.025351, -0.018326, 0.001222, 0.029778, 0.077582, 0.982041, 14.653777, -17.992958, 50.700661, 0.090354, -0.040268, 1.031430

149503719.922211, 0.018937, -0.019242, 0.002749, 0.029778, 0.062065, 0.935277, 14.669827, -17.976538, 50.702671, 0.090069, -0.040296, 1.031204

149503719.923215, 0.017410, -0.017715, 0.002749, 0.029778, 0.062065, 0.935277, 14.641594, -17.922585, 50.704277, 0.089765, -0.040298, 1.030980

149503719.924263, 0.019853, -0.016799, 0.002138, 0.029778, 0.062065, 0.935277, 14.619007, -17.879421, 50.705563, 0.089499, -0.040298, 1.030753

149503719.925312, 0.024129, -0.017715, 0.000611, 0.029778, 0.077582, 0.950865, 14.600938, -17.844891, 50.706593, 0.089585, -0.040299, 1.030792

149503719.926317, 0.021991, -0.012217, 0.001833, 0.029778, 0.077582, 0.950865, 14.586483, -17.817266, 50.707417, 0.089638, -0.040238, 1.030846

149503719.927367, 0.020464, -0.016493, 0.000611, 0.029778, 0.077582, 0.935277, 14.615992, -17.897209, 50.824696, 0.089711, -0.040238, 1.030944

149503719.928366, 0.017410, -0.017410, -0.002443, 0.029778, 0.077582, 0.935277, 14.639598, -17.961163, 50.918518, 0.089744, -0.040236, 1.031025

149503719.929415, 0.018631, -0.014355, 0.001222, 0.014889, 0.062065, 0.966453, 14.658484, -18.012325, 50.993576, 0.089433, -0.039877, 1.030243

149503719.930465, 0.020159, -0.015882, 0.001833, 0.014889, 0.062065, 0.966453, 14.714664, -18.012440, 50.983650, 0.089143, -0.039541, 1.029444

149503719.931466, 0.019853, -0.017104, 0.002443, 0.044666, 0.062065, 0.950865, 14.759609, -18.012531, 50.975708, 0.088860, -0.039860, 1.029720

149503719.932514, 0.021380, -0.018631, 0.004581, 0.044666, 0.062065, 0.950865, 14.795565, -18.012604, 50.969357, 0.088606, -0.040197, 1.029986

149503719.933521, 0.021686, -0.016493, 0.004887, 0.059555, 0.062065, 0.950865, 14.824329, -18.012663, 50.987598, 0.088358, -0.040816, 1.030786

149503719.934559, 0.020464, -0.015577, 0.005192, 0.059555, 0.062065, 0.950865, 14.847342, -18.012709, 51.002193, 0.088110, -0.041419, 1.031560

149503719.935615, 0.022602, -0.018631, 0.000916, 0.044666, 0.093098, 0.982041, 14.865751, -18.012747, 51.013866, 0.088473, -0.041687, 1.032200

149503719.936624, 0.019853, -0.015272, -0.003054, 0.044666, 0.093098, 0.982041, 14.880479, -18.012777, 50.929909, 0.088793, -0.041904, 1.032776

149503719.937675, 0.021991, -0.017410, 0.002443, 0.029778, 0.062065, 0.966453, 14.830651, -18.012800, 50.862743, 0.088528, -0.041856, 1.032358

149503719.938679, 0.022602, -0.014661, 0.000916, 0.029778, 0.062065, 0.966453, 14.790790, -18.012819, 50.809013, 0.088265, -0.041774, 1.031960

149503719.939731, 0.017410, -0.014661, 0.002749, 0.044666, 0.062065, 0.966453, 14.758901, -18.012835, 50.766029, 0.087962, -0.042015, 1.032134

149503719.940758, 0.019242, -0.017104, 0.005192, 0.044666, 0.062065, 0.966453, 14.774462, -17.992439, 50.848259, 0.087678, -0.042274, 1.032313

149503719.941779, 0.017104, -0.010385, 0.003054, 0.014889, 0.062065, 0.950865, 14.786911, -17.976122, 50.914043, 0.087409, -0.041838, 1.031453

149503719.942787, 0.017410, -0.016799, 0.002443, 0.014889, 0.062065, 0.950865, 14.796870, -17.963068, 50.966671, 0.087148, -0.041471, 1.030590

149503719.943833, 0.009468, -0.018021, 0.001222, 0.029778, 0.077582, 0.950865, 14.743229, -17.932217, 50.962124, 0.087130, -0.041451, 1.030591

149503719.944882, 0.017104, -0.018631, -0.000305, 0.029778, 0.077582, 0.950865, 14.700315, -17.907536, 50.958488, 0.087193, -0.041437, 1.030595

149503719.945886, 0.017410, -0.014966, 0.000916, 0.029778, 0.093098, 0.982041, 14.665985, -17.887791, 50.955578, 0.087509, -0.041359, 1.030842

149503719.946937, 0.009468, -0.016188, 0.000611, 0.029778, 0.093098, 0.982041, 14.659057, -17.892403, 50.929928, 0.087746, -0.041301, 1.031085

149503719.947986, 0.017104, -0.016799, 0.003360, 0.044666, 0.062065, 0.950865, 14.653514, -17.896093, 50.909409, 0.087470, -0.041590, 1.031362

149503719.948985, 0.022297, -0.017104, 0.004276, 0.044666, 0.062065, 0.950865, 14.649079, -17.899046, 50.892994, 0.087242, -0.041868, 1.031646

149503719.950030, 0.019548, -0.014050, 0.004581, 0.029778, 0.062065, 0.966453, 14.645532, -17.901407, 50.879860, 0.086981, -0.041789, 1.031355

149503719.951077, 0.018937, -0.016188, 0.003360, 0.029778, 0.062065, 0.966453, 14.683766, -17.882889, 50.869354, 0.086719, -0.041733, 1.031021

149503719.952076, 0.019548, -0.016188, 0.003665, 0.029778, 0.062065, 0.919689, 14.714355, -17.868074, 50.860950, 0.086524, -0.041703, 1.030788

149503719.953123, 0.020464, -0.015882, 0.001833, 0.029778, 0.077582, 0.919689, 14.738825, -17.856222, 50.854225, 0.086686, -0.041678, 1.030848

149503719.954170, 0.019548, -0.015272, 0.000305, 0.029778, 0.077582, 0.919689, 14.758401, -17.805923, 50.848846, 0.086837, -0.041645, 1.030859

149503719.955170, 0.021686, -0.016188, 0.001527, 0.014889, 0.077582, 0.966453, 14.774062, -17.765686, 50.844543, 0.086923, -0.041277, 1.030223

149503719.956218, 0.024129, -0.017104, 0.003971, 0.014889, 0.077582, 0.966453, 14.786591, -17.733496, 50.841099, 0.087041, -0.040935, 1.029602

149503719.957217, 0.025045, -0.013134, 0.004887, 0.059555, 0.077582, 0.950865, 14.776077, -17.768967, 50.838345, 0.087183, -0.041498, 1.030640

149503719.958262, 0.019853, -0.017104, 0.005498, 0.059555, 0.077582, 0.950865, 14.767667, -17.797344, 50.836140, 0.087279, -0.042097, 1.031678

149503719.959314, 0.018021, -0.013744, 0.006414, 0.014889, 0.077582, 0.950865, 14.760939, -17.820045, 50.834377, 0.087353, -0.041713, 1.031143

149503719.960312, 0.019853, -0.013439, 0.003054, 0.014889, 0.077582, 0.950865, 14.817165, -17.797390, 50.832966, 0.087436, -0.041322, 1.030538

149503719.961361, 0.021991, -0.012828, 0.003360, 0.029778, 0.093098, 0.982041, 14.862146, -17.779266, 50.831837, 0.087802, -0.041234, 1.030635

149503719.962407, 0.015577, -0.016799, 0.003360, 0.029778, 0.093098, 0.982041, 14.898131, -17.764767, 50.830936, 0.088095, -0.041187, 1.030697

149503719.963405, 0.015577, -0.018021, 0.006720, 0.029778, 0.077582, 0.966453, 14.926919, -17.753168, 50.830215, 0.088087, -0.041158, 1.030507

149503719.964453, 0.020464, -0.021380, 0.002138, 0.029778, 0.077582, 0.966453, 14.847267, -17.805113, 50.806313, 0.088138, -0.041169, 1.030346

149503719.965500, 0.014966, -0.018326, 0.000916, 0.029778, 0.077582, 0.950865, 14.783546, -17.846670, 50.787189, 0.088158, -0.041157, 1.030278

149503719.966502, 0.016188, -0.018631, 0.002443, 0.029778, 0.077582, 0.950865, 14.732570, -17.879915, 50.771893, 0.088181, -0.041143, 1.030274

149503719.967554, 0.021380, -0.019242, 0.002443, 0.059555, 0.093098, 0.997629, 14.732861, -17.886103, 50.876274, 0.088509, -0.041704, 1.031445

149503719.968557, 0.017410, -0.017104, 0.002749, 0.059555, 0.093098, 0.997629, 14.733093, -17.891052, 50.959782, 0.088780, -0.042225, 1.032605

149503719.969607, 0.023518, -0.015272, 0.004581, 0.044666, 0.077582, 0.966453, 14.733279, -17.895012, 51.026588, 0.088848, -0.042464, 1.033076

149503719.970657, 0.023213, -0.015577, 0.004887, 0.044666, 0.077582, 0.966453, 14.692356, -17.857365, 51.010059, 0.088911, -0.042701, 1.033553

149503719.971660, 0.020769, -0.014966, 0.003665, 0.044666, 0.077582, 0.966453, 14.659617, -17.827246, 50.996838, 0.088939, -0.042919, 1.034017

149503719.972716, 0.025351, -0.014661, 0.003054, 0.044666, 0.077582, 0.966453, 14.633427, -17.803150, 50.986259, 0.089025, -0.043138, 1.034476

149503719.973718, 0.022297, -0.016493, 0.004276, 0.029778, 0.077582, 0.950865, 14.612473, -17.783875, 50.977795, 0.089090, -0.043064, 1.034461

149503719.974766, 0.020159, -0.016188, 0.001833, 0.029778, 0.077582, 0.950865, 14.636784, -17.809271, 50.947701, 0.089144, -0.042994, 1.034414

149503719.975771, 0.022907, -0.019853, 0.000611, 0.029778, 0.077582, 0.950865, 14.656232, -17.829588, 50.923626, 0.089216, -0.042953, 1.034348

149503719.976822, 0.023518, -0.018021, 0.000916, 0.029778, 0.077582, 0.950865, 14.671790, -17.845840, 50.904366, 0.089303, -0.042904, 1.034281

149503719.977871, 0.024129, -0.016799, 0.000916, 0.044666, 0.077582, 0.966453, 14.704773, -17.838436, 50.865635, 0.089368, -0.043141, 1.034667

149503719.978872, 0.025351, -0.014050, 0.004581, 0.044666, 0.077582, 0.966453, 14.731159, -17.832512, 50.834648, 0.089430, -0.043342, 1.035061

149503719.979926, 0.023213, -0.015882, 0.007636, 0.029778, 0.093098, 0.966453, 14.752269, -17.827772, 50.809860, 0.089799, -0.043259, 1.035242

149503719.980927, 0.018631, -0.018631, 0.006720, 0.029778, 0.093098, 0.966453, 14.728084, -17.823980, 50.836678, 0.090103, -0.043194, 1.035421

149503719.981974, 0.021991, -0.016799, 0.003665, 0.029778, 0.093098, 0.966453, 14.708735, -17.820948, 50.858131, 0.090445, -0.043119, 1.035581

149503719.983023, 0.023518, -0.018326, 0.004581, 0.029778, 0.077582, 0.950865, 14.693257, -17.818521, 50.875294, 0.090506, -0.043072, 1.035500

149503719.984028, 0.021686, -0.017715, 0.000916, 0.029778, 0.077582, 0.950865, 14.680875, -17.836988, 50.819054, 0.090539, -0.043009, 1.035397

149503719.985076, 0.019853, -0.016493, 0.003054, 0.029778, 0.077582, 0.950865, 14.670968, -17.851761, 50.774059, 0.090560, -0.042944, 1.035329

149503719.986079, 0.024129, -0.013439, 0.005803, 0.029778, 0.077582, 0.950865, 14.663043, -17.863579, 50.738064, 0.090613, -0.042846, 1.035299

149503719.987130, 0.022602, -0.015882, 0.003665, 0.044666, 0.077582, 0.966453, 14.656703, -17.873034, 50.709267, 0.090635, -0.043078, 1.035730

149503719.988177, 0.022602, -0.019548, 0.002443, 0.044666, 0.077582, 0.966453, 14.672168, -17.921413, 50.686230, 0.090656, -0.043341, 1.036143

149503719.989176, 0.016799, -0.016493, 0.000611, 0.044666, 0.062065, 0.966453, 14.684539, -17.960117, 50.667801, 0.090291, -0.043559, 1.036235

149503719.990229, 0.020769, -0.017715, 0.003054, 0.044666, 0.062065, 0.966453, 14.694436, -17.991081, 50.653057, 0.089982, -0.043796, 1.036354

149503719.991278, 0.017104, -0.019853, 0.002749, 0.044666, 0.093098, 0.935277, 14.681817, -17.954628, 50.664585, 0.090343, -0.044072, 1.037151

149503719.992279, 0.022907, -0.018021, 0.002749, 0.044666, 0.093098, 0.935277, 14.671722, -17.925465, 50.673809, 0.090746, -0.044316, 1.037930

149503719.993329, 0.022297, -0.012217, 0.002138, 0.029778, 0.077582, 0.950865, 14.663647, -17.902134, 50.681187, 0.090789, -0.044180, 1.037826

149503719.994338, 0.018326, -0.013134, 0.003054, 0.029778, 0.077582, 0.950865, 14.636650, -17.903877, 50.687092, 0.090782, -0.044052, 1.037751

149503719.995393, 0.021991, -0.013744, 0.001527, 0.029778, 0.077582, 0.966453, 14.615052, -17.905273, 50.691814, 0.090797, -0.043928, 1.037635

149503719.996394, 0.024740, -0.015882, 0.003360, 0.029778, 0.077582, 0.966453, 14.597775, -17.906389, 50.695591, 0.090825, -0.043821, 1.037551

149503719.997447, 0.018021, -0.016493, 0.000305, 0.044666, 0.077582, 0.966453, 14.583952, -17.907282, 50.698612, 0.090798, -0.044037, 1.037964

149503719.998449, 0.014355, -0.014661, 0.000916, 0.044666, 0.077582, 0.966453, 14.572894, -17.907997, 50.701031, 0.090726, -0.044224, 1.038387

149503719.999497, 0.022907, -0.016493, 0.002749, 0.029778, 0.077582, 0.950865, 14.564048, -17.908569, 50.702965, 0.090774, -0.044134, 1.038346

149503720.000547, 0.018021, -0.015577, 0.003360, 0.029778, 0.077582, 0.950865, 14.556971, -17.909027, 50.704514, 0.090772, -0.044038, 1.038319

149503720.001552, 0.017410, -0.015882, 0.003971, 0.014889, 0.062065, 0.950865, 14.592381, -17.868576, 50.729076, 0.090443, -0.043618, 1.037419

149503720.002601, 0.020769, -0.015882, 0.006414, 0.014889, 0.062065, 0.950865, 14.620710, -17.836216, 50.748726, 0.090162, -0.043215, 1.036531

149503720.003601, 0.022602, -0.015577, 0.005803, 0.014889, 0.108614, 0.966453, 14.643373, -17.810328, 50.764446, 0.090818, -0.042814, 1.036522

149503720.004650, 0.022602, -0.015272, 0.003054, 0.014889, 0.108614, 0.966453, 14.702577, -17.830433, 50.823669, 0.091472, -0.042424, 1.036460

149503720.005700, 0.019853, -0.014661, 0.002749, 0.029778, 0.062065, 0.950865, 14.749939, -17.846518, 50.871048, 0.091153, -0.042347, 1.035997

149503720.006701, 0.022602, -0.015577, 0.004276, 0.029778, 0.062065, 0.950865, 14.787828, -17.859385, 50.908951, 0.090857, -0.042275, 1.035539

149503720.007755, 0.020464, -0.011912, 0.002443, -0.015630, 0.124131, 0.982041, 14.777068, -17.890087, 50.939274, 0.091786, -0.041251, 1.034798

149503720.008761, 0.022907, -0.014355, 0.004887, -0.015630, 0.124131, 0.982041, 14.768459, -17.914648, 50.963531, 0.092710, -0.040268, 1.034110

149503720.009812, 0.023213, -0.019548, 0.003971, -0.015630, 0.062065, 0.950865, 14.761573, -17.934298, 50.982937, 0.092452, -0.039313, 1.032215

149503720.010814, 0.023213, -0.018021, 0.003360, 0.029778, 0.093098, 0.950865, 14.756063, -17.950018, 50.998463, 0.092780, -0.039329, 1.032505

149503720.011863, 0.023824, -0.015882, 0.003054, 0.029778, 0.093098, 0.950865, 14.772192, -17.942184, 50.964237, 0.093120, -0.039330, 1.032773

149503720.012916, 0.018326, -0.015882, 0.001527, 0.029778, 0.077582, 0.950865, 14.785095, -17.935919, 50.936855, 0.093075, -0.039332, 1.032708

149503720.013916, 0.017410, -0.017104, 0.001833, 0.029778, 0.077582, 0.950865, 14.795418, -17.930906, 50.914951, 0.093013, -0.039338, 1.032635

149503720.014967, 0.022602, -0.014355, 0.001527, 0.029778, 0.062065, 0.966453, 14.783139, -17.906488, 50.850777, 0.092670, -0.039308, 1.032200

149503720.015971, 0.019853, -0.018021, -0.000000, 0.029778, 0.062065, 0.966453, 14.773316, -17.886953, 50.799438, 0.092297, -0.039307, 1.031750

149503720.017021, 0.019548, -0.019548, 0.003971, 0.029778, 0.093098, 0.950865, 14.765458, -17.871326, 50.758369, 0.092602, -0.039348, 1.032005

149503720.018069, 0.024435, -0.016188, 0.000611, 0.029778, 0.093098, 0.950865, 14.738635, -17.818008, 50.748837, 0.092952, -0.039350, 1.032221

149503720.019070, 0.017410, -0.016799, 0.000611, 0.044666, 0.062065, 0.950865, 14.717176, -17.775352, 50.741211, 0.092569, -0.039666, 1.032342

149503720.020123, 0.024435, -0.013744, 0.003054, 0.044666, 0.062065, 0.950865, 14.700009, -17.741228, 50.735111, 0.092273, -0.039955, 1.032486

149503720.021125, 0.023518, -0.016799, 0.002749, 0.029778, 0.062065, 0.950865, 14.686276, -17.795561, 50.730228, 0.091963, -0.039943, 1.032114

149503720.022177, 0.018021, -0.015882, 0.001527, 0.029778, 0.062065, 0.950865, 14.757435, -17.839027, 50.726322, 0.091615, -0.039928, 1.031709

149503720.023229, 0.026573, -0.020464, 0.001833, 0.044666, 0.077582, 0.966453, 14.814362, -17.873800, 50.723198, 0.091660, -0.040264, 1.032080

149503720.024229, 0.032987, -0.017410, 0.001833, 0.044666, 0.077582, 0.966453, 14.859903, -17.901619, 50.720699, 0.091753, -0.040553, 1.032427

149503720.025277, 0.024435, -0.014966, -0.000000, 0.014889, 0.046549, 0.966453, 14.834727, -17.862650, 50.765347, 0.091149, -0.040174, 1.031064

149503720.026282, 0.021991, -0.018021, -0.000000, 0.014889, 0.046549, 0.966453, 14.814587, -17.831474, 50.801067, 0.090522, -0.039827, 1.029727

149503720.027332, 0.026573, -0.016799, 0.004276, 0.014889, 0.077582, 0.950865, 14.798474, -17.806534, 50.829643, 0.090619, -0.039516, 1.029176

149503720.028382, 0.027489, -0.018937, 0.002749, 0.014889, 0.077582, 0.950865, 14.765048, -17.868214, 50.852505, 0.090723, -0.039232, 1.028667

149503720.029382, 0.023213, -0.014355, 0.005192, 0.029778, 0.093098, 0.982041, 14.738307, -17.917559, 50.870792, 0.091024, -0.039195, 1.028953

149503720.030436, 0.024129, -0.014050, 0.002749, 0.029778, 0.093098, 0.982041, 14.716914, -17.957035, 50.885422, 0.091342, -0.039161, 1.029241

149503720.031438, 0.018326, -0.016188, 0.002443, 0.074444, 0.062065, 0.966453, 14.740872, -17.947800, 50.850479, 0.091002, -0.040090, 1.030564

149503720.032487, 0.025656, -0.018021, 0.000305, 0.074444, 0.062065, 0.966453, 14.760039, -17.940411, 50.822525, 0.090752, -0.041024, 1.031817

149503720.033493, 0.028711, -0.017104, 0.000916, 0.029778, 0.093098, 0.950865, 14.775373, -17.934500, 50.800159, 0.091171, -0.040995, 1.032063

149503720.034545, 0.025656, -0.013134, 0.001222, 0.029778, 0.093098, 0.950865, 14.787640, -17.929771, 50.782269, 0.091563, -0.040934, 1.032298

149503720.035592, 0.021380, -0.015577, 0.003971, 0.029778, 0.062065, 0.935277, 14.797453, -17.946396, 50.791279, 0.091277, -0.040909, 1.031976

149503720.036595, 0.017715, -0.015882, 0.004276, 0.029778, 0.062065, 0.935277, 14.805304, -17.959696, 50.798489, 0.090951, -0.040881, 1.031662

149503720.037647, 0.018937, -0.016188, 0.003971, 0.029778, 0.062065, 0.966453, 14.811584, -17.970335, 50.804256, 0.090611, -0.040842, 1.031274

149503720.038648, 0.022602, -0.014966, 0.004581, 0.029778, 0.062065, 0.966453, 14.857681, -17.958439, 50.785545, 0.090304, -0.040785, 1.030864

149503720.039696, 0.021075, -0.019853, 0.005803, 0.029778, 0.062065, 0.966453, 14.894559, -17.948921, 50.770576, 0.089998, -0.040786, 1.030441

149503720.040749, 0.019853, -0.016493, 0.003360, 0.044666, 0.062065, 0.950865, 14.924061, -17.941307, 50.758602, 0.089706, -0.041081, 1.030552

149503720.041749, 0.019242, -0.015577, 0.001833, 0.044666, 0.062065, 0.950865, 14.886054, -17.914808, 50.818996, 0.089404, -0.041351, 1.030664

149503720.042797, 0.021380, -0.017410, 0.000611, 0.029778, 0.108614, 0.997629, 14.855648, -17.893610, 50.867310, 0.090003, -0.041293, 1.031010

149503720.043839, 0.019242, -0.014966, 0.004887, 0.029778, 0.108614, 0.997629, 14.831324, -17.876652, 50.905960, 0.090565, -0.041214, 1.031406

149503720.044838, 0.018021, -0.017715, 0.004581, 0.029778, 0.093098, 0.966453, 14.791327, -17.903900, 50.866909, 0.090848, -0.041179, 1.031632

149503720.045889, 0.021075, -0.014966, 0.003971, 0.029778, 0.093098, 0.966453, 14.759331, -17.925699, 50.835667, 0.091167, -0.041125, 1.031879

149503720.046895, 0.021991, -0.017104, 0.003971, 0.029778, 0.062065, 0.966453, 14.733733, -17.943138, 50.810673, 0.090844, -0.041084, 1.031528

149503720.047949, 0.024129, -0.014355, 0.000611, 0.029778, 0.062065, 0.966453, 14.713255, -17.957090, 50.790680, 0.090561, -0.041021, 1.031171

149503720.048997, 0.026573, -0.014661, 0.007330, 0.014889, 0.077582, 0.966453, 14.717409, -17.947844, 50.891304, 0.090629, -0.040661, 1.030704

149503720.049998, 0.024740, -0.014355, 0.007941, 0.014889, 0.077582, 0.966453, 14.720733, -17.940445, 50.971806, 0.090665, -0.040300, 1.030248

149503720.051052, 0.023518, -0.017104, 0.004581, 0.044666, 0.077582, 0.950865, 14.723392, -17.934526, 51.036205, 0.090724, -0.040612, 1.030837

149503720.052087, 0.021991, -0.019548, 0.002749, 0.044666, 0.077582, 0.950865, 14.766591, -17.909384, 51.017754, 0.090761, -0.040938, 1.031351

149503720.053093, 0.016799, -0.021991, -0.000000, 0.029778, 0.077582, 0.935277, 14.801150, -17.889271, 51.002991, 0.090768, -0.040969, 1.031312

149503720.054146, 0.022297, -0.019242, 0.003665, 0.029778, 0.077582, 0.935277, 14.828798, -17.873180, 50.991180, 0.090837, -0.040985, 1.031287

149503720.055164, 0.016493, -0.014050, 0.002138, 0.044666, 0.062065, 0.950865, 14.830379, -17.860308, 50.958408, 0.090489, -0.041245, 1.031413

149503720.056170, 0.021380, -0.015577, 0.005192, 0.044666, 0.062065, 0.950865, 14.831645, -17.850010, 50.932194, 0.090192, -0.041516, 1.031559

149503720.057219, 0.024129, -0.016493, 0.004581, 0.044666, 0.077582, 0.966453, 14.832657, -17.841770, 50.911221, 0.090238, -0.041782, 1.031953

149503720.058268, 0.022297, -0.014966, 0.003054, 0.044666, 0.077582, 0.966453, 14.833467, -17.835178, 50.894444, 0.090265, -0.042024, 1.032320

149503720.059270, 0.014355, -0.014355, 0.002138, 0.044666, 0.077582, 0.950865, 14.834114, -17.829906, 50.881020, 0.090229, -0.042263, 1.032718

149503720.060318, 0.018631, -0.016799, 0.002443, 0.044666, 0.077582, 0.950865, 14.834633, -17.825687, 50.870281, 0.090245, -0.042530, 1.033107

149503720.061322, 0.016799, -0.018937, 0.000305, 0.044666, 0.062065, 0.950865, 14.835048, -17.822313, 50.861691, 0.089910, -0.042803, 1.033150

149503720.062373, 0.025351, -0.017715, 0.001222, 0.044666, 0.062065, 0.950865, 14.835380, -17.840021, 50.831493, 0.089677, -0.043067, 1.033209

149503720.063426, 0.026573, -0.017715, 0.002749, 0.029778, 0.093098, 0.966453, 14.835645, -17.854187, 50.807335, 0.090077, -0.043003, 1.033329

149503720.064428, 0.023213, -0.018937, 0.001527, 0.029778, 0.093098, 0.966453, 14.835857, -17.865520, 50.788010, 0.090423, -0.042943, 1.033438

149503720.065479, 0.023824, -0.018021, 0.003360, 0.044666, 0.062065, 0.966453, 14.753881, -17.915403, 50.795872, 0.090142, -0.043195, 1.033551

149503720.066484, 0.021991, -0.020159, 0.004581, 0.044666, 0.062065, 0.966453, 14.688301, -17.955311, 50.802162, 0.089837, -0.043457, 1.033733

149503720.067532, 0.020159, -0.014661, 0.003971, 0.044666, 0.062065, 0.966453, 14.635837, -17.987236, 50.807194, 0.089529, -0.043666, 1.033963

149503720.068536, 0.019242, -0.011912, 0.004276, 0.029778, 0.077582, 0.935277, 14.676010, -17.971960, 50.811222, 0.089582, -0.043547, 1.034028

149503720.069586, 0.020159, -0.016188, 0.004276, 0.029778, 0.077582, 0.935277, 14.708149, -17.959740, 50.814442, 0.089652, -0.043481, 1.034063

149503720.070641, 0.018631, -0.013134, 0.002749, 0.014889, 0.077582, 0.966453, 14.733860, -17.949963, 50.817020, 0.089661, -0.043053, 1.033480

149503720.071644, 0.018326, -0.016188, 0.003971, 0.014889, 0.077582, 0.966453, 14.754429, -17.942141, 50.819080, 0.089657, -0.042658, 1.032900

149503720.072697, 0.017715, -0.018021, 0.002138, 0.044666, 0.062065, 0.950865, 14.750348, -17.915476, 50.844051, 0.089350, -0.042931, 1.033064

149503720.073700, 0.023518, -0.017104, 0.003971, 0.044666, 0.062065, 0.950865, 14.747084, -17.894144, 50.864029, 0.089098, -0.043182, 1.033237

149503720.074749, 0.020464, -0.018326, 0.001527, 0.014889, 0.046549, 0.966453, 14.744472, -17.877079, 50.880013, 0.088506, -0.042789, 1.031943

149503720.075751, 0.022297, -0.016493, 0.003971, 0.014889, 0.046549, 0.966453, 14.701309, -17.822609, 50.916122, 0.087934, -0.042381, 1.030704

149503720.076801, 0.019548, -0.016493, 0.001833, 0.029778, 0.077582, 0.950865, 14.666780, -17.779034, 50.945011, 0.088004, -0.042328, 1.030700

149503720.077850, 0.022297, -0.018021, 0.002749, 0.029778, 0.077582, 0.950865, 14.639156, -17.744173, 50.968121, 0.088101, -0.042292, 1.030710

149503720.078850, 0.021380, -0.016188, 0.003360, -0.000000, 0.046549, 0.982041, 14.617058, -17.777510, 50.986610, 0.087531, -0.041573, 1.029006

149503720.079901, 0.020464, -0.018937, 0.002443, -0.000000, 0.046549, 0.982041, 14.599379, -17.804178, 51.001400, 0.086973, -0.040906, 1.027348

149503720.080902, 0.014050, -0.014050, 0.003054, 0.014889, 0.077582, 0.966453, 14.585236, -17.825514, 51.013233, 0.086978, -0.040533, 1.026954

149503720.081951, 0.014966, -0.015882, -0.000305, 0.014889, 0.077582, 0.966453, 14.573921, -17.883398, 51.022701, 0.086999, -0.040191, 1.026564

149503720.082998, 0.013744, -0.019548, 0.002749, 0.044666, 0.093098, 0.950865, 14.626478, -17.929707, 51.006950, 0.087355, -0.040519, 1.027557

149503720.084000, 0.022602, -0.018326, 0.001527, 0.044666, 0.093098, 0.950865, 14.668524, -17.966753, 50.994350, 0.087784, -0.040818, 1.028502

149503720.085048, 0.020769, -0.018326, 0.000611, 0.029778, 0.077582, 0.950865, 14.702160, -17.996389, 50.984268, 0.087870, -0.040814, 1.028592

149503720.086096, 0.021380, -0.016493, 0.003360, 0.029778, 0.077582, 0.950865, 14.708533, -17.938465, 50.976204, 0.087960, -0.040795, 1.028683

149503720.087105, 0.021380, -0.014050, 0.000916, 0.029778, 0.077582, 0.935277, 14.713632, -17.892126, 50.969753, 0.088067, -0.040753, 1.028771

149503720.088154, 0.017715, -0.015577, 0.002138, 0.029778, 0.077582, 0.935277, 14.717710, -17.855055, 50.964592, 0.088142, -0.040734, 1.028850

149503720.089168, 0.024435, -0.017104, 0.001833, 0.044666, 0.062065, 0.966453, 14.782582, -17.947847, 50.937138, 0.087905, -0.041014, 1.029041

149503720.090228, 0.023518, -0.018326, 0.000916, 0.044666, 0.062065, 0.966453, 14.834480, -18.022081, 50.915176, 0.087675, -0.041308, 1.029211

149503720.091220, 0.024740, -0.017715, 0.003054, 0.029778, 0.077582, 0.950865, 14.875998, -18.081469, 50.897606, 0.087789, -0.041280, 1.029225

149503720.092277, 0.016188, -0.015272, 0.004581, 0.029778, 0.077582, 0.950865, 14.888677, -18.067755, 50.860226, 0.087828, -0.041240, 1.029243

149503720.093281, 0.021991, -0.018937, 0.002443, 0.029778, 0.062065, 0.966453, 14.898819, -18.056784, 50.830322, 0.087572, -0.041213, 1.028865

149503720.094331, 0.018937, -0.016188, 0.002443, 0.029778, 0.062065, 0.966453, 14.906933, -18.048006, 50.806400, 0.087300, -0.041167, 1.028487

149503720.095337, 0.025656, -0.020464, 0.002138, 0.029778, 0.062065, 0.982041, 14.913424, -18.040983, 50.787262, 0.087072, -0.041147, 1.028064

149503720.096387, 0.017104, -0.021380, 0.003665, 0.029778, 0.062065, 0.982041, 14.857007, -18.096590, 50.795277, 0.086770, -0.041147, 1.027727

149503720.097436, 0.022907, -0.018937, 0.001833, 0.029778, 0.062065, 0.982041, 14.811874, -18.141075, 50.801685, 0.086534, -0.041121, 1.027429

149503720.098438, 0.018326, -0.018631, -0.000305, 0.044666, 0.077582, 0.950865, 14.775768, -18.176664, 50.806812, 0.086614, -0.041418, 1.028066

149503720.099486, 0.020769, -0.014661, 0.000916, 0.044666, 0.077582, 0.950865, 14.808493, -18.103094, 50.834240, 0.086725, -0.041678, 1.028657

149503720.100486, 0.021686, -0.016493, 0.003971, 0.029778, 0.077582, 0.966453, 14.834672, -18.044239, 50.856182, 0.086804, -0.041623, 1.028662

149503720.101534, 0.023518, -0.018631, 0.003360, 0.029778, 0.077582, 0.966453, 14.855616, -17.997154, 50.873734, 0.086911, -0.041598, 1.028628

149503720.102582, 0.024435, -0.017104, 0.003971, 0.014889, 0.077582, 0.966453, 14.851833, -17.979895, 50.911098, 0.087032, -0.041250, 1.028102

149503720.103580, 0.017104, -0.018326, 0.000916, 0.014889, 0.077582, 0.966453, 14.848808, -17.966087, 50.940990, 0.087068, -0.040909, 1.027552

149503720.104627, 0.017715, -0.020464, 0.002443, 0.029778, 0.077582, 0.966453, 14.846388, -17.955040, 50.964905, 0.087110, -0.040917, 1.027524

149503720.105675, 0.025962, -0.019242, 0.003665, 0.029778, 0.077582, 0.966453, 14.823915, -17.987019, 50.890739, 0.087236, -0.040913, 1.027533

149503720.106675, 0.024435, -0.014661, 0.000305, 0.014889, 0.062065, 0.950865, 14.805938, -18.012602, 50.831409, 0.087044, -0.040542, 1.026739

149503720.107723, 0.023824, -0.012217, 0.003360, 0.014889, 0.062065, 0.950865, 14.791555, -18.033070, 50.783943, 0.086860, -0.040163, 1.026009

149503720.108775, 0.021991, -0.017104, 0.002138, 0.029778, 0.062065, 0.950865, 14.780049, -18.049442, 50.745972, 0.086654, -0.040160, 1.025806

149503720.109778, 0.019548, -0.018326, 0.002138, 0.029778, 0.062065, 0.950865, 14.770844, -18.001316, 50.715595, 0.086417, -0.040161, 1.025590

149503720.110821, 0.016799, -0.016493, 0.003360, 0.044666, 0.077582, 0.966453, 14.763480, -17.962816, 50.691292, 0.086463, -0.040451, 1.026172

149503720.111828, 0.018326, -0.011606, -0.000000, 0.044666, 0.077582, 0.966453, 14.757589, -17.932016, 50.671852, 0.086519, -0.040678, 1.026703

149503720.112879, 0.018021, -0.012828, -0.000000, 0.044666, 0.046549, 0.966453, 14.752876, -17.948193, 50.749596, 0.085937, -0.040917, 1.026607

149503720.113927, 0.019548, -0.015577, 0.002749, 0.044666, 0.046549, 0.966453, 14.749106, -17.961134, 50.811790, 0.085381, -0.041182, 1.026550

149503720.114930, 0.021991, -0.013439, 0.002443, 0.014889, 0.062065, 0.966453, 14.746090, -17.971487, 50.861546, 0.085181, -0.040792, 1.025789

149503720.115980, 0.020464, -0.018631, -0.002749, 0.014889, 0.062065, 0.966453, 14.723141, -17.938953, 50.831379, 0.084982, -0.040464, 1.024987

149503720.116979, 0.019853, -0.016493, -0.000305, 0.029778, 0.077582, 0.950865, 14.704782, -17.912926, 50.807243, 0.085105, -0.040440, 1.025097

149503720.118024, 0.018021, -0.015882, 0.001833, 0.029778, 0.077582, 0.950865, 14.690094, -17.892103, 50.787937, 0.085215, -0.040419, 1.025226

149503720.119071, 0.021380, -0.013439, 0.003971, 0.029778, 0.077582, 0.950865, 14.678344, -17.875446, 50.772491, 0.085357, -0.040376, 1.025378

149503720.120071, 0.021991, -0.019242, 0.003360, 0.029778, 0.077582, 0.950865, 14.710016, -17.923344, 50.760136, 0.085492, -0.040383, 1.025512

149503720.121118, 0.021075, -0.012217, 0.001527, 0.044666, 0.077582, 0.966453, 14.735354, -17.961662, 50.750248, 0.085602, -0.040624, 1.026104

149503720.122168, 0.023213, -0.012217, 0.003054, 0.044666, 0.077582, 0.966453, 14.755625, -17.992317, 50.742340, 0.085732, -0.040862, 1.026697

149503720.123167, 0.022602, -0.014661, -0.001222, 0.044666, 0.062065, 0.950865, 14.812914, -17.996433, 50.782661, 0.085544, -0.041126, 1.026940

149503720.124214, 0.020464, -0.017104, 0.001833, 0.044666, 0.062065, 0.950865, 14.858746, -17.999725, 50.814919, 0.085347, -0.041419, 1.027178

149503720.125259, 0.015577, -0.015882, 0.004581, 0.044666, 0.062065, 0.950865, 14.895411, -18.002359, 50.840725, 0.085102, -0.041696, 1.027417

149503720.126258, 0.014966, -0.017410, 0.003054, 0.029778, 0.077582, 0.982041, 14.883670, -17.943241, 50.838047, 0.085124, -0.041638, 1.027323

149503720.127320, 0.019853, -0.015577, 0.003054, 0.029778, 0.077582, 0.982041, 14.874277, -17.895947, 50.835903, 0.085205, -0.041574, 1.027220

149503720.128319, 0.017410, -0.012523, 0.002138, 0.044666, 0.077582, 0.966453, 14.866763, -17.858112, 50.834187, 0.085273, -0.041788, 1.027658

149503720.129370, 0.021686, -0.012523, 0.001222, 0.044666, 0.077582, 0.966453, 14.799143, -17.970701, 50.832813, 0.085394, -0.042004, 1.028168

149503720.130418, 0.026573, -0.018021, 0.003665, 0.029778, 0.077582, 0.935277, 14.745047, -18.060772, 50.831715, 0.085613, -0.041986, 1.028329

149503720.131417, 0.021380, -0.017410, 0.002749, 0.029778, 0.077582, 0.935277, 14.701770, -18.132830, 50.830837, 0.085764, -0.041954, 1.028534

149503720.132463, 0.022602, -0.013744, 0.001527, 0.044666, 0.062065, 0.966453, 14.667149, -18.190475, 50.830135, 0.085564, -0.042182, 1.028905

149503720.133511, 0.016799, -0.014661, 0.001527, 0.044666, 0.062065, 0.966453, 14.721597, -18.195776, 50.806248, 0.085308, -0.042415, 1.029231

149503720.134512, 0.017410, -0.014661, 0.002138, 0.014889, 0.062065, 0.966453, 14.765155, -18.200016, 50.787140, 0.085065, -0.042011, 1.028496

149503720.135557, 0.019853, -0.015577, 0.001833, 0.014889, 0.062065, 0.966453, 14.800001, -18.203407, 50.771854, 0.084859, -0.041632, 1.027750

149503720.136604, 0.021075, -0.014966, 0.000305, 0.029778, 0.077582, 0.966453, 14.807343, -18.185713, 50.782948, 0.084980, -0.041566, 1.027808

149503720.137604, 0.023518, -0.018021, 0.002138, 0.029778, 0.077582, 0.966453, 14.813215, -18.171558, 50.791824, 0.085113, -0.041527, 1.027872

149503720.138652, 0.018021, -0.018631, 0.003665, 0.029778, 0.077582, 0.950865, 14.817913, -18.160234, 50.798923, 0.085223, -0.041515, 1.027985

149503720.139698, 0.020159, -0.017104, 0.003971, 0.029778, 0.077582, 0.950865, 14.760063, -18.089951, 50.781281, 0.085351, -0.041488, 1.028109

149503720.140700, 0.018937, -0.013134, 0.000305, 0.029778, 0.062065, 0.966453, 14.713783, -18.033724, 50.767166, 0.085115, -0.041399, 1.027851

149503720.141747, 0.019853, -0.014355, 0.001833, 0.029778, 0.062065, 0.966453, 14.676759, -17.988743, 50.755875, 0.084900, -0.041331, 1.027617

149503720.142745, 0.021686, -0.017104, 0.003971, 0.029778, 0.077582, 0.982041, 14.647140, -17.952757, 50.746841, 0.084989, -0.041280, 1.027685

149503720.143784, 0.022907, -0.016493, 0.004581, 0.029778, 0.077582, 0.982041, 14.705589, -17.964785, 50.786263, 0.085098, -0.041230, 1.027727

149503720.144830, 0.017410, -0.016799, 0.000611, 0.014889, 0.077582, 0.966453, 14.752349, -17.974407, 50.817799, 0.085183, -0.040883, 1.027243

