Using settings file RTIMULib.ini
IMU Name: L3GD20 + LSM303DLHC
IMU Init Succeeded
Recommended Poll Interval: 4mS

Time, gyroX, gyroY, gyroZ, accelX, accelY, accelZ, magX, magY, magZ, phi, theta, psi

149503946.107744, 0.001527, -0.071777, 0.015577, 0.014889, -0.975440, 0.155879, -1.304220, -3.786253, 10.608621, -1.412332, -0.015071, -1.710160

149503946.111116, 1.036333, -0.432187, 0.110567, 0.014889, -0.975440, 0.202643, -1.546678, -14.733623, 6.523891, -1.377381, -0.014010, -1.702350

149503946.111884, 1.036944, -0.428827, 0.110567, 0.059555, -0.975440, 0.187055, -1.740645, -23.491518, 3.256108, -1.370458, -0.014280, -1.735207

149503946.112837, 1.038165, -0.427606, 0.109345, 0.059555, -0.975440, 0.187055, -1.895818, -30.497835, 0.641881, -1.361907, -0.014081, -1.778110

149503946.113925, 1.039082, -0.426689, 0.109956, 0.059555, -0.975440, 0.187055, -2.019957, -36.102890, -1.449500, -1.352083, -0.013571, -1.822796

149503946.114978, 1.039693, -0.430049, 0.108734, 0.014889, -0.975440, 0.187055, -2.078195, -40.484894, -3.099281, -1.341527, -0.012417, -1.871110

149503946.116017, 1.038776, -0.429438, 0.110872, 0.014889, -0.975440, 0.187055, -2.124786, -43.990494, -4.419106, -1.331249, -0.011034, -1.919112

149503946.117047, 1.021978, -0.425773, 0.110567, 0.029778, -0.975440, 0.171467, -2.162058, -46.794975, -5.474966, -1.321899, -0.009237, -1.965424

149503946.118103, 0.963945, -0.445626, 0.107207, 0.029778, -0.975440, 0.171467, -2.315094, -49.018150, -6.366302, -1.313035, -0.007397, -2.010649

149503946.119093, 0.828028, -0.413250, 0.097433, 0.029778, -0.975440, 0.187055, -2.437523, -50.796692, -7.079370, -1.306122, -0.005855, -2.055927

149503946.120147, 0.607506, -0.311236, 0.079107, 0.029778, -0.975440, 0.187055, -2.535466, -52.219524, -7.649826, -1.301099, -0.004184, -2.101161

149503946.121155, 0.385151, -0.185703, 0.051924, 0.029778, -0.975440, 0.187055, -2.613821, -53.357792, -8.106190, -1.298679, -0.002452, -2.146952

149503946.122191, 0.064752, -0.036957, 0.009163, 0.029778, -0.975440, 0.187055, -2.573822, -54.411263, -8.494605, -1.299514, -0.000814, -2.193493

149503946.123213, 0.011606, -0.013134, 0.006109, 0.014889, -0.990923, 0.202643, -2.541824, -55.254040, -8.805337, -1.300440, 0.000689, -2.240382

149503946.124258, 0.018631, -0.016493, 0.004581, 0.014889, -0.990923, 0.202643, -2.516225, -55.928261, -9.053923, -1.301337, 0.002097, -2.286381

149503946.125298, 0.016493, -0.013134, 0.001527, 0.089333, -0.959957, 0.187055, -2.516282, -56.406414, -9.229467, -1.304050, 0.002468, -2.327663

149503946.126304, 0.016493, -0.014661, 0.002138, 0.089333, -0.959957, 0.187055, -2.516328, -56.788937, -9.369903, -1.306728, 0.002726, -2.368150

149503946.127346, 0.017410, -0.013744, 0.001833, 0.014889, -0.959957, 0.187055, -2.516365, -57.094952, -9.482251, -1.307782, 0.004042, -2.411609

149503946.128418, 0.015577, -0.016188, 0.001527, 0.014889, -0.959957, 0.187055, -2.557467, -57.278542, -9.572130, -1.308883, 0.005271, -2.454151

149503946.129439, 0.018937, -0.012217, 0.002138, 0.014889, -0.975440, 0.155879, -2.590348, -57.425415, -9.644033, -1.310418, 0.007127, -2.495526

149503946.130437, 0.020464, -0.014050, 0.003360, 0.014889, -0.975440, 0.155879, -2.616653, -57.542912, -9.701556, -1.311984, 0.008886, -2.536046

149503946.131472, 0.019853, -0.014050, 0.001527, 0.029778, -0.959957, 0.202643, -2.576089, -57.596092, -9.770898, -1.313226, 0.009337, -2.575552

149503946.132528, 0.016799, -0.012828, 0.003054, 0.029778, -0.959957, 0.202643, -2.543637, -57.638638, -9.826371, -1.314486, 0.009747, -2.614314

149503946.133522, 0.015272, -0.011912, 0.004276, 0.029778, -0.959957, 0.155879, -2.517675, -57.672672, -9.870750, -1.316425, 0.010960, -2.651792

149503946.134565, 0.017104, -0.013744, 0.003360, 0.029778, -0.959957, 0.155879, -2.496906, -57.699902, -9.906254, -1.318340, 0.012064, -2.688530

149503946.135623, 0.017410, -0.012828, 0.003360, 0.029778, -0.959957, 0.218231, -2.480291, -57.844131, -9.934656, -1.319340, 0.011987, -2.725261

149503946.136614, 0.016493, -0.012217, 0.000916, 0.029778, -0.959957, 0.218231, -2.466999, -57.959518, -9.957378, -1.320336, 0.011852, -2.761295

149503946.137676, 0.009774, -0.015272, 0.001222, 0.044666, -0.959957, 0.187055, -2.456365, -58.051826, -9.975555, -1.322081, 0.011939, -2.795512

149503946.138683, 0.018631, -0.014966, 0.003971, 0.044666, -0.959957, 0.187055, -2.530003, -58.044041, -9.990097, -1.323710, 0.011993, -2.828987

149503946.139719, 0.019853, -0.014661, 0.003971, 0.014889, -0.944474, 0.202643, -2.588914, -58.037811, -10.001731, -1.324510, 0.012195, -2.863408

149503946.140733, 0.018021, -0.013744, 0.003054, 0.014889, -0.944474, 0.202643, -2.636042, -58.032829, -10.011038, -1.325322, 0.012355, -2.897114

149503946.141775, 0.014966, -0.015577, 0.001833, 0.059555, -0.975440, 0.155879, -2.673745, -58.008434, -10.041807, -1.327660, 0.012448, -2.927182

149503946.142812, 0.014050, -0.014661, 0.001222, 0.059555, -0.975440, 0.155879, -2.703907, -57.988918, -10.066422, -1.329963, 0.012464, -2.956639

149503946.143860, 0.020159, -0.013134, 0.002749, 0.059555, -0.975440, 0.155879, -2.728037, -57.973305, -10.086115, -1.332154, 0.012431, -2.985500

149503946.144856, 0.022907, -0.018937, 0.002443, 0.044666, -0.990923, 0.155879, -2.685732, -57.940407, -10.031897, -1.334110, 0.012661, -3.014554

149503946.145916, 0.020159, -0.015272, 0.004276, 0.044666, -0.990923, 0.155879, -2.651888, -57.914089, -9.988523, -1.336047, 0.012854, -3.043069

149503946.146937, 0.017410, -0.011606, 0.003360, 0.029778, -0.975440, 0.171467, -2.624813, -57.893036, -9.953823, -1.337490, 0.013023, -3.072094

149503946.147984, 0.021686, -0.015882, 0.002749, 0.029778, -0.975440, 0.171467, -2.603152, -57.876190, -9.926064, -1.338859, 0.013131, -3.100509

149503946.149029, 0.019242, -0.016188, 0.004276, 0.089333, -0.928990, 0.171467, -2.606360, -57.903534, -9.903856, -1.340838, 0.011862, -3.125271

149503946.150032, 0.016188, -0.016188, 0.002443, 0.089333, -0.928990, 0.171467, -2.608927, -57.925407, -9.886090, -1.342783, 0.010551, 3.133649

149503946.151074, 0.022907, -0.012828, 0.002749, 0.014889, -0.990923, 0.187055, -2.610980, -57.942905, -9.871878, -1.343592, 0.010696, 3.105837

149503946.152117, 0.018021, -0.015577, 0.002749, 0.014889, -0.990923, 0.187055, -2.612623, -57.956905, -9.883831, -1.344437, 0.010805, 3.078609

149503946.153125, 0.016799, -0.014661, 0.002443, 0.014889, -0.975440, 0.202643, -2.613937, -57.968105, -9.893394, -1.344978, 0.010645, 3.051762

149503946.154164, 0.018937, -0.015577, 0.005192, 0.014889, -0.975440, 0.202643, -2.614988, -57.977066, -9.901044, -1.345476, 0.010497, 3.025472

149503946.155171, 0.018631, -0.019242, 0.002138, 0.059555, -0.975440, 0.171467, -2.595293, -57.963825, -9.907165, -1.347011, 0.009807, 3.002348

149503946.156224, 0.017410, -0.010996, 0.002138, 0.059555, -0.975440, 0.171467, -2.579536, -57.953232, -9.912061, -1.348505, 0.009113, 2.979598

149503946.157260, 0.020464, -0.015577, 0.002138, 0.029778, -0.990923, 0.171467, -2.566931, -57.944756, -9.915977, -1.349652, 0.009016, 2.955783

149503946.158285, 0.015272, -0.012828, 0.005498, 0.029778, -0.990923, 0.171467, -2.556848, -57.937977, -9.919111, -1.350829, 0.008932, 2.932414

149503946.159328, 0.016493, -0.010996, 0.006109, 0.029778, -0.959957, 0.187055, -2.548780, -58.014187, -9.921618, -1.351599, 0.008583, 2.909295

149503946.160322, 0.024435, -0.012217, 0.003360, 0.029778, -0.959957, 0.187055, -2.542327, -58.075153, -9.923624, -1.352275, 0.008191, 2.886631

149503946.161374, 0.021991, -0.012523, 0.000916, 0.014889, -0.959957, 0.202643, -2.537164, -58.123928, -9.925228, -1.352500, 0.007878, 2.863518

149503946.162413, 0.016188, -0.012523, 0.000916, 0.014889, -0.959957, 0.202643, -2.491961, -58.101723, -9.926512, -1.352776, 0.007564, 2.840824

149503946.163435, 0.015882, -0.010385, 0.005192, 0.029778, -0.975440, 0.202643, -2.455798, -58.083958, -9.927539, -1.353253, 0.007055, 2.819289

149503946.164458, 0.023213, -0.010996, 0.005192, 0.029778, -0.975440, 0.202643, -2.426868, -58.069748, -9.928360, -1.353636, 0.006545, 2.798164

149503946.165502, 0.018631, -0.011301, 0.005498, 0.029778, -0.975440, 0.171467, -2.506406, -58.099194, -9.905693, -1.354602, 0.006338, 2.777882

149503946.166543, 0.013744, -0.014050, 0.002443, 0.029778, -0.975440, 0.171467, -2.570036, -58.122749, -9.887560, -1.355593, 0.006076, 2.758090

149503946.167550, 0.020464, -0.014966, 0.001527, 0.029778, -0.959957, 0.202643, -2.620940, -58.141594, -9.873053, -1.355877, 0.005460, 2.738393

149503946.168588, 0.024129, -0.017410, 0.002443, 0.029778, -0.959957, 0.202643, -2.661663, -58.136261, -9.884771, -1.356098, 0.004852, 2.719155

149503946.169614, 0.018326, -0.016188, 0.000916, 0.014889, -0.959957, 0.218231, -2.694242, -58.131996, -9.894146, -1.355945, 0.004374, 2.699448

149503946.170626, 0.011912, -0.016493, -0.000305, 0.014889, -0.959957, 0.218231, -2.720305, -58.128586, -9.901646, -1.355851, 0.003894, 2.680154

149503946.171663, 0.011301, -0.014050, 0.002138, 0.014889, -0.959957, 0.171467, -2.741155, -58.125854, -9.907645, -1.356622, 0.003878, 2.661661

149503946.172710, 0.015882, -0.011912, 0.002443, 0.044666, -0.975440, 0.171467, -2.696226, -58.082855, -9.912445, -1.357617, 0.003282, 2.645079

149503946.173715, 0.020159, -0.019242, 0.004581, 0.044666, -0.975440, 0.171467, -2.660283, -58.048454, -9.916286, -1.358549, 0.002687, 2.628865

149503946.174752, 0.016188, -0.013744, 0.002138, 0.014889, -0.959957, 0.187055, -2.631529, -58.020935, -9.919357, -1.358911, 0.002519, 2.611142

149503946.175778, 0.013744, -0.014661, 0.003360, 0.014889, -0.959957, 0.187055, -2.608525, -58.100960, -9.945139, -1.359290, 0.002356, 2.593757

149503946.176820, 0.017410, -0.016188, 0.002443, 0.014889, -0.975440, 0.202643, -2.590122, -58.164978, -9.965764, -1.359384, 0.002079, 2.576597

149503946.177874, 0.021075, -0.015272, 0.003971, 0.014889, -0.975440, 0.202643, -2.575400, -58.216194, -9.982265, -1.359432, 0.001822, 2.559760

149503946.178869, 0.023824, -0.015272, 0.004581, 0.044666, -0.990923, 0.187055, -2.522550, -58.155128, -9.925492, -1.360013, 0.001138, 2.544873

149503946.179904, 0.023518, -0.016799, 0.006109, 0.044666, -0.990923, 0.187055, -2.480269, -58.106274, -9.880075, -1.360566, 0.000471, 2.530280

149503946.180986, 0.023213, -0.016493, 0.002443, 0.014889, -0.975440, 0.171467, -2.446445, -58.067192, -9.843740, -1.361129, 0.000450, 2.514555

149503946.181957, 0.020769, -0.011301, 0.002443, 0.014889, -0.975440, 0.171467, -2.419386, -58.158375, -9.814673, -1.361728, 0.000430, 2.499056

149503946.183000, 0.017410, -0.010690, 0.004276, 0.029778, -0.959957, 0.187055, -2.479883, -58.231319, -9.791420, -1.362090, -0.000020, 2.484561

149503946.184050, 0.018326, -0.017410, 0.002138, 0.029778, -0.959957, 0.187055, -2.528282, -58.289677, -9.772817, -1.362426, -0.000505, 2.470469

149503946.185061, 0.016188, -0.017715, 0.001833, 0.014889, -0.975440, 0.202643, -2.567000, -58.336361, -9.757935, -1.362438, -0.000773, 2.455791

149503946.186096, 0.018937, -0.015882, 0.002749, 0.014889, -0.975440, 0.202643, -2.639048, -58.332893, -9.792677, -1.362414, -0.001024, 2.441454

149503946.187117, 0.019853, -0.014966, 0.003971, 0.029778, -0.959957, 0.171467, -2.696686, -58.330120, -9.820471, -1.363016, -0.001382, 2.428531

149503946.188173, 0.015577, -0.014661, 0.001527, 0.029778, -0.959957, 0.171467, -2.742797, -58.327900, -9.842706, -1.363638, -0.001767, 2.415904

149503946.189211, 0.016799, -0.013744, 0.003665, 0.029778, -1.006406, 0.171467, -2.718076, -58.224083, -9.860494, -1.364380, -0.002053, 2.403520

149503946.190208, 0.017410, -0.013744, 0.004276, 0.029778, -1.006406, 0.171467, -2.698299, -58.141029, -9.874724, -1.365104, -0.002337, 2.391358

149503946.191251, 0.017104, -0.018631, 0.001833, 0.014889, -0.975440, 0.155879, -2.682478, -58.074585, -9.886108, -1.365923, -0.002308, 2.378814

149503946.192286, 0.013439, -0.020159, 0.003665, 0.014889, -0.975440, 0.155879, -2.649285, -58.062248, -9.918540, -1.366765, -0.002275, 2.366499

149503946.193331, 0.014355, -0.018021, 0.003360, 0.029778, -0.944474, 0.218231, -2.622730, -58.052380, -9.944485, -1.366341, -0.002967, 2.354507

149503946.194326, 0.021380, -0.015272, 0.003054, 0.029778, -0.944474, 0.218231, -2.601486, -58.044483, -9.965240, -1.365856, -0.003639, 2.342697

149503946.195387, 0.014661, -0.012523, 0.003054, 0.014889, -0.975440, 0.155879, -2.584491, -58.038166, -9.981846, -1.366674, -0.003585, 2.330954

149503946.196409, 0.015272, -0.013439, 0.002138, 0.014889, -0.975440, 0.155879, -2.591432, -58.073929, -9.971806, -1.367476, -0.003554, 2.319455

149503946.197457, 0.013439, -0.014355, 0.001222, 0.029778, -0.975440, 0.140292, -2.596984, -58.102539, -9.963774, -1.368657, -0.003786, 2.309263

149503946.198498, 0.010690, -0.014966, 0.000305, 0.029778, -0.975440, 0.140292, -2.601426, -58.125427, -9.957348, -1.369841, -0.004037, 2.299285

149503946.199502, 0.020464, -0.014661, 0.003054, 0.014889, -0.975440, 0.202643, -2.584443, -58.123329, -9.975532, -1.369626, -0.004269, 2.287991

149503946.200543, 0.019548, -0.011912, 0.002749, 0.014889, -0.975440, 0.202643, -2.570857, -58.121651, -9.990078, -1.369415, -0.004493, 2.276886

149503946.201579, 0.018631, -0.014966, 0.001527, 0.014889, -0.975440, 0.202643, -2.559988, -58.120308, -10.001716, -1.369215, -0.004730, 2.266019

149503946.202592, 0.029932, -0.015882, 0.004276, 0.014889, -0.959957, 0.202643, -2.530756, -58.098827, -10.011025, -1.368848, -0.004957, 2.255339

149503946.203629, 0.018021, -0.013744, 0.001833, 0.014889, -0.959957, 0.202643, -2.507371, -58.081642, -10.018474, -1.368600, -0.005197, 2.244829

149503946.204634, 0.011301, -0.016188, 0.000611, 0.014889, -0.990923, 0.171467, -2.488663, -58.067894, -10.024432, -1.369141, -0.005257, 2.234820

149503946.205686, 0.010996, -0.014050, 0.001527, 0.014889, -0.990923, 0.171467, -2.535305, -58.158936, -10.005875, -1.369670, -0.005310, 2.225047

149503946.206723, 0.018937, -0.012828, 0.003360, 0.029778, -0.975440, 0.202643, -2.572619, -58.231770, -9.991029, -1.369516, -0.005802, 2.215947

149503946.207744, 0.019853, -0.018021, 0.005803, 0.029778, -0.975440, 0.202643, -2.602470, -58.290035, -9.979152, -1.369355, -0.006270, 2.207112

149503946.208786, 0.019242, -0.019853, 0.004276, 0.014889, -0.944474, 0.187055, -2.626351, -58.336647, -9.969650, -1.369319, -0.006420, 2.197861

149503946.209828, 0.018021, -0.016799, 0.001833, 0.014889, -0.944474, 0.187055, -2.645456, -58.271896, -9.938725, -1.369294, -0.006586, 2.188782

149503946.210833, 0.023518, -0.017715, 0.005803, 0.014889, -0.975440, 0.202643, -2.660740, -58.220097, -9.913985, -1.369036, -0.006743, 2.179810

149503946.211877, 0.015272, -0.016799, 0.003054, 0.014889, -0.975440, 0.202643, -2.672967, -58.178658, -9.894194, -1.368856, -0.006921, 2.171023

149503946.212892, 0.021380, -0.015577, 0.002749, 0.059555, -1.006406, 0.171467, -2.703285, -58.084282, -9.878360, -1.369456, -0.007845, 2.165075

149503946.213916, 0.015272, -0.014050, -0.002749, 0.059555, -1.006406, 0.171467, -2.727539, -58.008781, -9.865693, -1.370098, -0.008806, 2.159247

149503946.214963, 0.018631, -0.012217, 0.002443, 0.029778, -0.975440, 0.187055, -2.746942, -57.948380, -9.855559, -1.370209, -0.009183, 2.151810

149503946.216005, 0.014661, -0.014966, 0.001222, 0.029778, -0.975440, 0.187055, -2.741929, -57.900059, -9.847452, -1.370356, -0.009571, 2.144545

149503946.217012, 0.018326, -0.018021, 0.003665, 0.029778, -0.959957, 0.171467, -2.737918, -57.861401, -9.840967, -1.370718, -0.009903, 2.137629

149503946.218056, 0.023213, -0.015577, 0.004581, 0.029778, -0.959957, 0.171467, -2.734709, -57.830475, -9.835779, -1.371015, -0.010217, 2.130834

149503946.219093, 0.018021, -0.017410, 0.002138, 0.029778, -0.975440, 0.202643, -2.732142, -57.805737, -9.831629, -1.370803, -0.010637, 2.123838

149503946.220104, 0.021380, -0.018326, 0.005803, 0.029778, -0.975440, 0.202643, -2.730089, -57.785946, -9.828308, -1.370564, -0.011014, 2.116992

149503946.221145, 0.020769, -0.015577, 0.006720, 0.029778, -0.975440, 0.171467, -2.728446, -57.770111, -9.825651, -1.370935, -0.011271, 2.110619

149503946.222150, 0.018021, -0.014355, 0.003360, 0.029778, -0.975440, 0.171467, -2.727132, -57.757442, -9.823526, -1.371331, -0.011558, 2.104350

149503946.223201, 0.021380, -0.016493, 0.003971, 0.044666, -0.959957, 0.155879, -2.685008, -57.849350, -9.821826, -1.371967, -0.012134, 2.099223

149503946.224239, 0.015882, -0.014355, -0.000000, 0.044666, -0.959957, 0.155879, -2.651308, -57.922874, -9.820466, -1.372646, -0.012737, 2.094136

149503946.225277, 0.017715, -0.013134, 0.000305, 0.029778, -0.959957, 0.155879, -2.624349, -57.981697, -9.819378, -1.373258, -0.013006, 2.088276

149503946.226275, 0.022297, -0.014966, 0.003665, 0.029778, -0.959957, 0.155879, -2.602781, -57.967529, -9.865155, -1.373819, -0.013242, 2.082522

149503946.227322, 0.020159, -0.015577, 0.002138, 0.029778, -0.959957, 0.202643, -2.585527, -57.956196, -9.901777, -1.373448, -0.013625, 2.076320

149503946.228376, 0.017104, -0.013439, 0.005498, 0.029778, -0.959957, 0.202643, -2.571724, -57.947128, -9.931075, -1.373113, -0.013961, 2.070210

149503946.229370, 0.012523, -0.015577, 0.003360, 0.029778, -0.959957, 0.140292, -2.540145, -57.919464, -9.954514, -1.374082, -0.014151, 2.064956

149503946.230446, 0.014355, -0.013744, 0.000611, 0.029778, -0.959957, 0.171467, -2.514882, -57.897335, -9.973264, -1.374375, -0.014442, 2.059354

149503946.231460, 0.020769, -0.014966, 0.000611, 0.029778, -0.959957, 0.171467, -2.494672, -57.879631, -9.988264, -1.374607, -0.014730, 2.053845

149503946.232458, 0.022602, -0.014661, 0.001222, 0.029778, -0.990923, 0.187055, -2.478503, -57.865467, -10.000264, -1.374620, -0.015012, 2.048264

149503946.233503, 0.015577, -0.012828, 0.001527, 0.029778, -0.990923, 0.187055, -2.486105, -57.976585, -10.033189, -1.374693, -0.015284, 2.042784

149503946.234560, 0.018021, -0.013134, -0.001833, 0.014889, -0.944474, 0.155879, -2.492186, -58.065479, -10.059528, -1.375155, -0.015238, 2.036905

149503946.235551, 0.012828, -0.014355, -0.000000, 0.014889, -0.944474, 0.155879, -2.497051, -58.136597, -10.080600, -1.375671, -0.015179, 2.031151

149503946.236580, 0.023518, -0.016493, 0.004887, 0.029778, -0.975440, 0.171467, -2.521480, -58.152672, -10.050809, -1.375893, -0.015405, 2.026250

149503946.237640, 0.019853, -0.011606, 0.005803, 0.029778, -0.975440, 0.171467, -2.541022, -58.165535, -10.026977, -1.376141, -0.015610, 2.021429

149503946.238680, 0.017715, -0.017715, 0.002138, 0.014889, -0.959957, 0.187055, -2.556656, -58.175823, -10.007911, -1.376006, -0.015609, 2.015812

149503946.239677, 0.018021, -0.014355, 0.002138, 0.014889, -0.959957, 0.187055, -2.487018, -58.102421, -9.992658, -1.375877, -0.015601, 2.010206

149503946.240727, 0.014050, -0.017104, 0.002138, 0.014889, -0.975440, 0.155879, -2.431308, -58.043701, -9.980455, -1.376459, -0.015506, 2.005003

149503946.241763, 0.011912, -0.014966, 0.001222, 0.014889, -0.975440, 0.155879, -2.386739, -57.996723, -9.970694, -1.377053, -0.015421, 1.999835

149503946.242795, 0.018326, -0.013134, 0.006414, 0.014889, -0.975440, 0.187055, -2.371621, -58.081589, -10.009532, -1.376953, -0.015362, 1.994453

149503946.243793, 0.020769, -0.011301, 0.004581, 0.014889, -0.975440, 0.187055, -2.359526, -58.149483, -10.040603, -1.376838, -0.015320, 1.989136

149503946.244841, 0.017410, -0.013439, 0.001527, 0.029778, -0.959957, 0.187055, -2.349851, -58.203796, -10.065459, -1.376725, -0.015628, 1.984696

149503946.245878, 0.017715, -0.015882, 0.003054, 0.029778, -0.959957, 0.187055, -2.342110, -58.247250, -10.085344, -1.376613, -0.015920, 1.980361

149503946.246922, 0.014355, -0.016188, 0.000916, 0.044666, -0.975440, 0.187055, -2.376990, -58.200378, -10.054605, -1.376614, -0.016513, 1.976915

149503946.247967, 0.018021, -0.010996, 0.004581, 0.044666, -0.975440, 0.187055, -2.404895, -58.162884, -10.030013, -1.376575, -0.017048, 1.973523

149503946.248973, 0.017410, -0.012828, 0.005498, 0.059555, -0.975440, 0.171467, -2.427218, -58.132889, -10.010340, -1.376860, -0.017854, 1.971220

149503946.250019, 0.020769, -0.015882, 0.003360, 0.059555, -0.975440, 0.171467, -2.486149, -58.149708, -9.971277, -1.377096, -0.018672, 1.969061

149503946.251017, 0.017715, -0.015882, 0.004887, 0.044666, -0.990923, 0.187055, -2.533294, -58.163162, -9.940027, -1.377109, -0.019154, 1.966008

149503946.252074, 0.016188, -0.013744, 0.002749, 0.044666, -0.990923, 0.187055, -2.571010, -58.173927, -9.915027, -1.377124, -0.019643, 1.963041

149503946.253110, 0.014661, -0.018326, 0.000305, 0.029778, -0.944474, 0.155879, -2.621720, -58.141724, -9.871702, -1.377598, -0.019854, 1.959835

149503946.254121, 0.019548, -0.017104, 0.002749, 0.029778, -0.944474, 0.155879, -2.662287, -58.115959, -9.837043, -1.378018, -0.020037, 1.956730

149503946.255174, 0.022907, -0.013134, 0.003054, 0.014889, -0.959957, 0.187055, -2.694741, -58.095348, -9.809316, -1.377780, -0.019935, 1.952525

149503946.256166, 0.018021, -0.016493, 0.002138, 0.014889, -0.959957, 0.187055, -2.720704, -58.078857, -9.787133, -1.377610, -0.019849, 1.948455

149503946.257207, 0.016799, -0.013439, 0.001833, 0.029778, -0.975440, 0.202643, -2.638793, -58.086075, -9.792711, -1.377227, -0.020078, 1.944987

149503946.258250, 0.020769, -0.014355, 0.002138, 0.029778, -0.975440, 0.202643, -2.573264, -58.091846, -9.797174, -1.376810, -0.020300, 1.941538

149503946.259290, 0.019853, -0.018021, 0.001833, 0.029778, -0.975440, 0.202643, -2.520841, -58.096466, -9.800745, -1.376412, -0.020526, 1.938146

149503946.260299, 0.026267, -0.014355, 0.008247, 0.029778, -0.959957, 0.233819, -2.519975, -58.059345, -9.896897, -1.375285, -0.020748, 1.934474

149503946.261339, 0.020464, -0.012828, 0.001833, 0.029778, -0.959957, 0.233819, -2.519282, -58.029648, -9.973819, -1.374231, -0.021022, 1.930841

149503946.262413, 0.016799, -0.016799, 0.003054, 0.014889, -0.959957, 0.187055, -2.518728, -58.005890, -10.035357, -1.374129, -0.020901, 1.926997

149503946.263376, 0.015272, -0.017715, 0.001833, 0.014889, -0.959957, 0.187055, -2.518285, -58.007294, -10.037938, -1.374062, -0.020795, 1.923217

149503946.264425, 0.019242, -0.014355, 0.003054, 0.029778, -0.959957, 0.187055, -2.517930, -58.008415, -10.040004, -1.373967, -0.020979, 1.920269

149503946.265469, 0.020159, -0.016188, 0.001833, 0.029778, -0.959957, 0.187055, -2.517646, -58.009312, -10.041656, -1.373866, -0.021175, 1.917394

149503946.266473, 0.014355, -0.017104, 0.001527, 0.044666, -0.975440, 0.171467, -2.537956, -58.010029, -9.996330, -1.374209, -0.021648, 1.915581

149503946.267515, 0.016799, -0.016188, 0.003360, 0.044666, -0.975440, 0.171467, -2.554203, -58.010605, -9.960070, -1.374515, -0.022094, 1.913829

149503946.268551, 0.018937, -0.018021, 0.004276, 0.014889, -0.975440, 0.171467, -2.567201, -58.011063, -9.931061, -1.374759, -0.021908, 1.910555

149503946.269562, 0.014050, -0.013744, 0.003971, 0.014889, -0.975440, 0.171467, -2.577599, -58.011429, -9.907854, -1.375051, -0.021722, 1.907313

149503946.270602, 0.016188, -0.013134, 0.003360, 0.044666, -0.959957, 0.187055, -2.606454, -58.011723, -9.935936, -1.374978, -0.022189, 1.905533

149503946.271652, 0.025351, -0.014355, 0.002749, 0.044666, -0.959957, 0.187055, -2.629538, -58.011959, -9.958402, -1.374809, -0.022655, 1.903816

149503946.272657, 0.024435, -0.014661, 0.000916, 0.014889, -0.959957, 0.187055, -2.648005, -58.012146, -9.976375, -1.374630, -0.022520, 1.900606

149503946.273693, 0.020769, -0.013439, 0.003360, 0.014889, -0.959957, 0.187055, -2.621707, -58.032703, -9.944105, -1.374485, -0.022361, 1.897437

149503946.274723, 0.017715, -0.017104, 0.003665, 0.014889, -0.975440, 0.187055, -2.600668, -58.049149, -9.918289, -1.374435, -0.022200, 1.894367

149503946.275765, 0.015882, -0.017104, 0.004581, 0.014889, -0.975440, 0.187055, -2.583837, -58.062305, -9.897636, -1.374403, -0.022034, 1.891348

149503946.276810, 0.020464, -0.015272, 0.004276, 0.029778, -0.959957, 0.264995, -2.549835, -58.052425, -9.881114, -1.372753, -0.022289, 1.888394

149503946.277810, 0.019548, -0.014050, 0.003360, 0.029778, -0.959957, 0.264995, -2.522634, -58.044521, -9.867896, -1.371153, -0.022543, 1.885459

149503946.278850, 0.024740, -0.014661, 0.007025, 0.014889, -0.975440, 0.187055, -2.500873, -58.038197, -9.857322, -1.371096, -0.022336, 1.882528

149503946.279882, 0.017715, -0.011301, 0.004581, 0.014889, -0.975440, 0.187055, -2.483464, -58.135178, -9.825539, -1.371113, -0.022151, 1.879603

149503946.280940, 0.015577, -0.010996, 0.003665, 0.014889, -0.975440, 0.171467, -2.551683, -58.212761, -9.800112, -1.371457, -0.021959, 1.876949

149503946.281940, 0.026573, -0.012523, 0.004887, 0.014889, -0.975440, 0.171467, -2.606257, -58.274830, -9.779771, -1.371697, -0.021765, 1.874414

149503946.282972, 0.023213, -0.015577, 0.002138, 0.059555, -0.975440, 0.202643, -2.649917, -58.324486, -9.763497, -1.371363, -0.022535, 1.873907

149503946.284031, 0.019242, -0.017104, 0.003665, 0.059555, -0.975440, 0.202643, -2.623236, -58.262169, -9.820451, -1.371073, -0.023278, 1.873397

149503946.285022, 0.016188, -0.015882, 0.002443, 0.029778, -0.975440, 0.187055, -2.601891, -58.212315, -9.866014, -1.371130, -0.023409, 1.871567

149503946.286091, 0.021686, -0.015577, 0.000916, 0.029778, -0.975440, 0.187055, -2.584815, -58.172432, -9.902464, -1.371117, -0.023553, 1.869757

149503946.287099, 0.017104, -0.013744, 0.005192, 0.029778, -0.975440, 0.187055, -2.632763, -58.140526, -9.884976, -1.371162, -0.023649, 1.868013

149503946.288135, 0.019548, -0.014966, 0.004887, 0.014889, -0.975440, 0.187055, -2.671122, -58.115002, -9.870986, -1.371159, -0.023444, 1.865587

149503946.289180, 0.015882, -0.014966, 0.000305, 0.014889, -0.975440, 0.187055, -2.701809, -58.094582, -9.859794, -1.371193, -0.023290, 1.863231

149503946.290177, 0.016799, -0.014355, 0.004276, -0.062521, -0.959957, 0.233819, -2.664749, -58.098652, -9.897488, -1.369976, -0.021686, 1.856846

149503946.291214, 0.015882, -0.016799, 0.002443, -0.062521, -0.959957, 0.233819, -2.635102, -58.101910, -9.927643, -1.368796, -0.020131, 1.850592

149503946.292257, 0.020464, -0.014966, 0.003665, 0.059555, -0.975440, 0.187055, -2.611383, -58.104515, -9.951767, -1.368842, -0.020920, 1.850707

149503946.293300, 0.019548, -0.012828, 0.003360, 0.059555, -0.975440, 0.187055, -2.592409, -58.106598, -9.971066, -1.368896, -0.021692, 1.850775

149503946.294308, 0.015577, -0.016799, 0.002749, 0.029778, -0.990923, 0.187055, -2.577229, -58.087860, -10.009830, -1.369058, -0.021843, 1.849369

149503946.295330, 0.017410, -0.016799, 0.003971, 0.029778, -0.990923, 0.187055, -2.565086, -58.072868, -10.040841, -1.369196, -0.021979, 1.847978

149503946.296380, 0.014966, -0.012523, 0.004581, 0.029778, -0.975440, 0.187055, -2.555371, -58.060875, -10.065650, -1.369294, -0.022109, 1.846556

149503946.297421, 0.014661, -0.013439, 0.002138, 0.029778, -0.975440, 0.187055, -2.568135, -58.071686, -10.038849, -1.369394, -0.022263, 1.845183

149503946.298427, 0.016799, -0.015882, 0.003971, 0.014889, -0.990923, 0.187055, -2.578347, -58.080338, -10.017408, -1.369520, -0.022090, 1.843119

149503946.299468, 0.014966, -0.012523, 0.004887, 0.014889, -0.990923, 0.187055, -2.586516, -58.087257, -10.000256, -1.369656, -0.021905, 1.841082

149503946.300509, 0.020159, -0.012523, 0.004887, 0.029778, -0.959957, 0.187055, -2.572515, -58.113201, -9.939885, -1.369633, -0.022046, 1.839828

149503946.301523, 0.020769, -0.012828, 0.003360, 0.029778, -0.959957, 0.187055, -2.561315, -58.133957, -9.891589, -1.369609, -0.022200, 1.838594

149503946.302559, 0.017715, -0.012523, -0.000000, 0.014889, -0.959957, 0.202643, -2.552354, -58.150562, -9.852952, -1.369287, -0.022093, 1.836464

149503946.303572, 0.021991, -0.013744, -0.000305, 0.014889, -0.959957, 0.202643, -2.565722, -58.163845, -9.915339, -1.368934, -0.021992, 1.834387

149503946.304626, 0.019548, -0.016493, 0.001527, 0.014889, -0.944474, 0.218231, -2.576416, -58.174473, -9.965248, -1.368225, -0.021906, 1.832254

149503946.305662, 0.014355, -0.011606, 0.001527, 0.014889, -0.944474, 0.218231, -2.584971, -58.182976, -10.005176, -1.367585, -0.021811, 1.830114

149503946.306681, 0.015577, -0.008552, 0.003665, 0.014889, -0.959957, 0.202643, -2.591816, -58.189777, -10.037118, -1.367328, -0.021664, 1.828129

149503946.307725, 0.020159, -0.010079, 0.003665, 0.014889, -0.959957, 0.202643, -2.576755, -58.174809, -10.062672, -1.367026, -0.021523, 1.826184

149503946.308766, 0.016493, -0.012217, 0.001222, 0.014889, -0.990923, 0.171467, -2.564706, -58.162834, -10.083115, -1.367503, -0.021374, 1.824583

149503946.309785, 0.014966, -0.015272, 0.000916, 0.014889, -0.990923, 0.171467, -2.555067, -58.153255, -10.099469, -1.367990, -0.021238, 1.823029

149503946.310825, 0.017104, -0.012217, 0.000916, -0.000000, -0.990923, 0.155879, -2.567892, -58.125183, -10.089229, -1.368728, -0.020775, 1.820804

149503946.311848, 0.015577, -0.007636, 0.000611, -0.000000, -0.990923, 0.155879, -2.578152, -58.102726, -10.081036, -1.369470, -0.020317, 1.818589

149503946.312870, 0.013744, -0.015577, 0.001222, 0.029778, -0.959957, 0.171467, -2.586360, -58.084763, -10.074482, -1.369830, -0.020531, 1.817973

149503946.313920, 0.018631, -0.013744, 0.003665, 0.029778, -0.959957, 0.171467, -2.551854, -58.090797, -10.069239, -1.370130, -0.020713, 1.817328

149503946.314917, 0.019242, -0.012523, 0.003971, 0.029778, -0.959957, 0.202643, -2.524249, -58.095627, -10.065044, -1.369802, -0.020896, 1.816310

149503946.315973, 0.013439, -0.012523, 0.002443, 0.029778, -0.959957, 0.202643, -2.502165, -58.099487, -10.061688, -1.369530, -0.021090, 1.815299

149503946.317012, 0.014661, -0.014966, 0.000611, 0.029778, -0.959957, 0.202643, -2.484498, -58.143394, -10.059004, -1.369254, -0.021303, 1.814310

149503946.318044, 0.019853, -0.014050, -0.000305, -0.000000, -0.975440, 0.202643, -2.552510, -58.178520, -10.033532, -1.368964, -0.020912, 1.811924

149503946.319054, 0.015577, -0.011912, 0.002749, -0.000000, -0.975440, 0.202643, -2.606919, -58.206619, -10.013155, -1.368727, -0.020495, 1.809619

149503946.320090, 0.017715, -0.018631, 0.002749, 0.029778, -0.975440, 0.187055, -2.650446, -58.229099, -9.996853, -1.368807, -0.020691, 1.809118

149503946.321090, 0.012828, -0.017104, 0.003360, 0.029778, -0.975440, 0.187055, -2.664732, -58.206268, -10.030459, -1.368938, -0.020874, 1.808615

149503946.322147, 0.019853, -0.018021, 0.002749, 0.029778, -0.975440, 0.155879, -2.676161, -58.188004, -10.057344, -1.369605, -0.021062, 1.808527

149503946.323183, 0.021686, -0.014966, 0.001222, 0.029778, -0.975440, 0.155879, -2.685303, -58.173389, -10.078853, -1.370244, -0.021256, 1.808408

149503946.324214, 0.020769, -0.012523, 0.003360, 0.029778, -0.959957, 0.171467, -2.651545, -58.141293, -10.002763, -1.370515, -0.021428, 1.808047

149503946.325257, 0.018631, -0.012828, 0.002443, 0.029778, -0.959957, 0.171467, -2.624538, -58.115616, -9.941892, -1.370800, -0.021606, 1.807683

149503946.326254, 0.016799, -0.013439, 0.000611, 0.014889, -0.975440, 0.202643, -2.602933, -58.095074, -9.893194, -1.370537, -0.021496, 1.806232

149503946.327302, 0.017715, -0.013744, 0.004581, 0.014889, -0.975440, 0.202643, -2.606185, -58.119453, -9.854237, -1.370262, -0.021351, 1.804836

149503946.328342, 0.019853, -0.015882, 0.001833, -0.000000, -0.975440, 0.187055, -2.608787, -58.138958, -9.823071, -1.370261, -0.020926, 1.802839

149503946.329369, 0.019242, -0.014966, 0.000611, -0.000000, -0.975440, 0.187055, -2.610868, -58.154564, -9.798138, -1.370270, -0.020520, 1.800874

149503946.330380, 0.022602, -0.014661, 0.003360, 0.014889, -0.975440, 0.187055, -2.612533, -58.167046, -9.778192, -1.370267, -0.020399, 1.799738

149503946.331424, 0.014355, -0.017410, 0.002138, 0.014889, -0.975440, 0.187055, -2.613865, -58.197441, -9.832207, -1.370341, -0.020298, 1.798648

149503946.332474, 0.019853, -0.015577, 0.000916, 0.014889, -0.975440, 0.155879, -2.614930, -58.221756, -9.875419, -1.370978, -0.020196, 1.797863

149503946.333484, 0.017104, -0.012523, 0.003360, 0.014889, -0.975440, 0.155879, -2.615783, -58.241207, -9.909988, -1.371635, -0.020067, 1.797058

149503946.334520, 0.014661, -0.013744, 0.001527, 0.029778, -0.975440, 0.171467, -2.575392, -58.154728, -9.937644, -1.371994, -0.020275, 1.796882

149503946.335545, 0.014661, -0.014966, 0.003971, 0.029778, -0.975440, 0.171467, -2.543080, -58.085545, -9.959768, -1.372347, -0.020457, 1.796689

149503946.336554, 0.019242, -0.016188, 0.001833, 0.029778, -0.975440, 0.187055, -2.517230, -58.030197, -9.977468, -1.372342, -0.020659, 1.796299

149503946.337590, 0.021380, -0.020159, 0.002749, 0.029778, -0.975440, 0.187055, -2.517086, -58.047146, -9.991627, -1.372312, -0.020855, 1.795960

149503946.338632, 0.018631, -0.016493, 0.001222, 0.014889, -0.975440, 0.171467, -2.516971, -58.060703, -10.002954, -1.372611, -0.020746, 1.794961

149503946.339679, 0.020769, -0.018021, 0.000916, 0.014889, -0.975440, 0.171467, -2.516879, -58.071548, -10.012016, -1.372882, -0.020645, 1.793996

149503946.340706, 0.013439, -0.014355, 0.002138, 0.029778, -0.975440, 0.171467, -2.516806, -58.121044, -9.972618, -1.373229, -0.020837, 1.793823

149503946.341748, 0.025045, -0.015882, 0.004887, 0.029778, -0.975440, 0.171467, -2.516747, -58.160641, -9.941099, -1.373449, -0.021000, 1.793684

149503946.342745, 0.013439, -0.015882, 0.001527, 0.029778, -0.990923, 0.187055, -2.516700, -58.192318, -9.915884, -1.373539, -0.021184, 1.793367

149503946.343801, 0.013744, -0.016188, 0.003054, 0.029778, -0.990923, 0.187055, -2.516662, -58.217659, -9.895712, -1.373615, -0.021350, 1.793076

149503946.344832, 0.021686, -0.016493, 0.003360, 0.029778, -0.990923, 0.187055, -2.598778, -58.197113, -9.879575, -1.373614, -0.021511, 1.792870

149503946.345834, 0.021075, -0.015577, 0.000916, 0.029778, -0.959957, 0.187055, -2.664470, -58.180679, -9.866665, -1.373506, -0.021710, 1.792695

149503946.346920, 0.017715, -0.014355, 0.003971, 0.029778, -0.959957, 0.187055, -2.717024, -58.167530, -9.856337, -1.373419, -0.021872, 1.792581

149503946.347934, 0.021380, -0.018326, 0.007330, 0.029778, -0.975440, 0.171467, -2.635849, -58.116196, -9.941370, -1.373679, -0.021998, 1.792605

149503946.348929, 0.019548, -0.014050, 0.005192, 0.029778, -0.975440, 0.171467, -2.570908, -58.075127, -10.009398, -1.373954, -0.022133, 1.792504

149503946.349980, 0.016799, -0.012828, 0.003054, 0.029778, -0.975440, 0.202643, -2.518956, -58.042274, -10.063819, -1.373627, -0.022286, 1.791997

149503946.350993, 0.020464, -0.010079, 0.003054, 0.029778, -0.975440, 0.202643, -2.518467, -58.077217, -10.060708, -1.373275, -0.022430, 1.791468

149503946.352031, 0.026878, -0.014050, 0.003054, 0.044666, -0.975440, 0.171467, -2.518076, -58.105171, -10.058220, -1.373470, -0.022886, 1.792117

149503946.353045, 0.022907, -0.016799, 0.003054, 0.044666, -0.975440, 0.171467, -2.517763, -58.127533, -10.056229, -1.373707, -0.023338, 1.792777

149503946.354095, 0.018326, -0.014050, 0.002749, 0.029778, -0.975440, 0.171467, -2.517513, -58.145424, -10.054636, -1.373984, -0.023470, 1.792616

149503946.355133, 0.020159, -0.013744, 0.002749, 0.029778, -0.975440, 0.171467, -2.496776, -58.282185, -10.030038, -1.374240, -0.023598, 1.792436

149503946.356158, 0.017715, -0.012828, 0.002749, 0.029778, -0.975440, 0.187055, -2.480187, -58.391594, -10.010360, -1.374208, -0.023721, 1.792060

149503946.357161, 0.016188, -0.015882, 0.003360, 0.029778, -0.975440, 0.187055, -2.466915, -58.479122, -9.994617, -1.374197, -0.023843, 1.791709

149503946.358202, 0.022297, -0.016493, 0.001222, 0.014889, -0.928990, 0.171467, -2.517907, -58.406284, -9.982022, -1.374250, -0.023694, 1.790754

149503946.359227, 0.018937, -0.016188, 0.001833, 0.014889, -0.928990, 0.171467, -2.558701, -58.348015, -9.971947, -1.374340, -0.023542, 1.789855

149503946.360276, 0.016799, -0.013134, 0.001833, 0.029778, -0.959957, 0.171467, -2.591335, -58.301399, -9.963886, -1.374565, -0.023687, 1.789821

149503946.361320, 0.021380, -0.015577, 0.003054, 0.029778, -0.959957, 0.171467, -2.658516, -58.243698, -9.934114, -1.374740, -0.023824, 1.789884

149503946.362354, 0.021380, -0.018021, 0.004581, 0.029778, -0.990923, 0.171467, -2.712260, -58.197540, -9.910296, -1.375022, -0.023929, 1.790046

149503946.363353, 0.020769, -0.016493, 0.002749, 0.029778, -0.990923, 0.171467, -2.755256, -58.160614, -9.891242, -1.375311, -0.024048, 1.790227

149503946.364395, 0.017715, -0.014661, 0.001527, -0.000000, -0.975440, 0.155879, -2.686971, -58.110664, -9.922647, -1.375855, -0.023552, 1.788811

149503946.365424, 0.018631, -0.017104, 0.003971, -0.000000, -0.975440, 0.155879, -2.632343, -58.070702, -9.947770, -1.376382, -0.023046, 1.787392

149503946.366473, 0.016188, -0.018326, 0.003054, 0.014889, -0.975440, 0.202643, -2.588640, -58.038734, -9.967869, -1.376007, -0.022896, 1.786384

149503946.367514, 0.018937, -0.016493, 0.002138, 0.014889, -0.975440, 0.202643, -2.553678, -58.013161, -9.983948, -1.375612, -0.022754, 1.785341

149503946.368499, 0.016799, -0.011912, 0.004276, 0.029778, -0.959957, 0.202643, -2.587317, -58.033516, -9.926839, -1.375197, -0.022890, 1.785037

149503946.369546, 0.015882, -0.013439, 0.004887, 0.029778, -0.959957, 0.202643, -2.614229, -58.049801, -9.881152, -1.374790, -0.023019, 1.784795

149503946.370587, 0.016799, -0.017715, 0.004276, 0.014889, -0.975440, 0.202643, -2.635758, -58.062828, -9.844603, -1.374443, -0.022855, 1.783895

149503946.371617, 0.021380, -0.014661, 0.004276, 0.014889, -0.975440, 0.202643, -2.652981, -58.073250, -9.862011, -1.374056, -0.022687, 1.782993

149503946.372661, 0.018937, -0.015272, 0.003665, 0.044666, -0.975440, 0.171467, -2.666760, -58.081589, -9.875937, -1.374311, -0.023138, 1.784011

149503946.373655, 0.019548, -0.013744, 0.005803, 0.044666, -0.975440, 0.171467, -2.677783, -58.088257, -9.887079, -1.374564, -0.023557, 1.784999

149503946.374690, 0.020769, -0.012217, 0.003971, 0.044666, -0.975440, 0.171467, -2.686601, -58.114002, -9.919316, -1.374792, -0.023981, 1.785954

149503946.375736, 0.016799, -0.010385, 0.001527, 0.029778, -0.959957, 0.202643, -2.693656, -58.134598, -9.945107, -1.374383, -0.024115, 1.785715

149503946.376776, 0.019242, -0.013744, 0.002138, 0.029778, -0.959957, 0.202643, -2.699300, -58.151073, -9.965738, -1.373959, -0.024248, 1.785515

149503946.377817, 0.018631, -0.015272, 0.003665, 0.029778, -0.990923, 0.171467, -2.662742, -58.103031, -9.982244, -1.374283, -0.024349, 1.785674

149503946.378825, 0.012523, -0.016493, 0.002443, 0.029778, -0.990923, 0.171467, -2.633496, -58.064598, -9.995448, -1.374666, -0.024461, 1.785803

149503946.379870, 0.024129, -0.010996, 0.004581, 0.014889, -0.975440, 0.187055, -2.610099, -58.033852, -10.006012, -1.374551, -0.024244, 1.784904

149503946.380908, 0.018631, -0.011301, 0.002749, 0.014889, -0.975440, 0.187055, -2.591381, -58.009254, -10.014462, -1.374495, -0.024051, 1.784003

149503946.381908, 0.024740, -0.013134, 0.002443, 0.059555, -0.975440, 0.171467, -2.535335, -58.030392, -9.997899, -1.374676, -0.024789, 1.785588

149503946.382950, 0.020464, -0.015577, 0.003665, 0.059555, -0.975440, 0.171467, -2.490497, -58.047302, -9.984649, -1.374889, -0.025503, 1.787137

149503946.383994, 0.013744, -0.017104, 0.003665, 0.014889, -0.975440, 0.155879, -2.454628, -58.060829, -9.974048, -1.375497, -0.025275, 1.786424

149503946.384994, 0.021991, -0.015577, 0.002749, 0.014889, -0.975440, 0.155879, -2.467004, -58.071651, -9.965568, -1.376017, -0.025059, 1.785717

149503946.386043, 0.018021, -0.015272, 0.003360, 0.044666, -0.959957, 0.202643, -2.476906, -58.080307, -9.958783, -1.375569, -0.025463, 1.786072

149503946.387093, 0.022907, -0.012523, 0.003360, 0.044666, -0.959957, 0.202643, -2.484827, -58.087234, -9.953356, -1.375079, -0.025853, 1.786401

149503946.388090, 0.021380, -0.011912, 0.003360, 0.014889, -0.975440, 0.187055, -2.491164, -58.072369, -9.995662, -1.374992, -0.025623, 1.785381

149503946.389138, 0.013744, -0.015882, 0.003054, 0.014889, -0.975440, 0.187055, -2.496233, -58.060474, -10.029507, -1.374976, -0.025408, 1.784426

149503946.390181, 0.012217, -0.013439, 0.004581, 0.014889, -0.990923, 0.187055, -2.500289, -58.050961, -10.056582, -1.375034, -0.025171, 1.783481

149503946.391182, 0.013744, -0.012523, 0.003054, 0.014889, -0.990923, 0.187055, -2.503533, -58.043350, -10.078243, -1.375080, -0.024952, 1.782537

149503946.392238, 0.019242, -0.013439, 0.001527, 0.014889, -0.975440, 0.202643, -2.526665, -58.016853, -10.048923, -1.374697, -0.024769, 1.781508

149503946.393237, 0.020464, -0.013134, 0.004887, 0.014889, -0.975440, 0.202643, -2.545171, -57.995655, -10.025468, -1.374320, -0.024555, 1.780516

149503946.394281, 0.023213, -0.014966, 0.005803, 0.014889, -0.975440, 0.187055, -2.559975, -57.978695, -10.006703, -1.374222, -0.024332, 1.779719

149503946.395314, 0.022297, -0.013134, 0.005803, 0.014889, -0.975440, 0.187055, -2.592355, -57.985535, -9.968368, -1.374138, -0.024110, 1.778954

149503946.396326, 0.025351, -0.017715, 0.003665, 0.029778, -0.975440, 0.155879, -2.618259, -57.991009, -9.937699, -1.374653, -0.024235, 1.779422

149503946.397372, 0.021991, -0.018021, 0.004887, 0.029778, -0.975440, 0.155879, -2.638982, -57.995388, -9.913164, -1.375185, -0.024345, 1.779920

149503946.398406, 0.019548, -0.014050, 0.004276, 0.044666, -0.990923, 0.202643, -2.655560, -57.998890, -9.893537, -1.374864, -0.024725, 1.780559

149503946.399468, 0.014050, -0.014966, 0.004276, 0.044666, -0.990923, 0.202643, -2.668823, -58.001694, -9.877834, -1.374601, -0.025098, 1.781214

149503946.400462, 0.017410, -0.015577, 0.002138, 0.029778, -0.975440, 0.140292, -2.679434, -58.003937, -9.865273, -1.375501, -0.025224, 1.781914

149503946.401492, 0.012828, -0.014966, 0.000305, 0.029778, -0.975440, 0.140292, -2.626313, -58.026138, -9.855223, -1.376423, -0.025362, 1.782542

149503946.402549, 0.013439, -0.015272, 0.001222, 0.029778, -0.975440, 0.140292, -2.583816, -58.043900, -9.847183, -1.377317, -0.025488, 1.783124

149503946.403540, 0.011301, -0.013744, 0.002443, 0.029778, -0.990923, 0.155879, -2.549819, -58.058105, -9.840752, -1.377959, -0.025577, 1.783425

149503946.404595, 0.021380, -0.015882, 0.004276, 0.029778, -0.990923, 0.155879, -2.522621, -58.069473, -9.835607, -1.378478, -0.025649, 1.783728

149503946.405602, 0.025351, -0.013439, 0.005498, 0.044666, -0.959957, 0.171467, -2.500863, -58.078568, -9.854815, -1.378536, -0.026029, 1.784560

149503946.406639, 0.020464, -0.014050, 0.006414, 0.044666, -0.959957, 0.171467, -2.483456, -58.085842, -9.870181, -1.378636, -0.026392, 1.785367

149503946.407702, 0.019548, -0.017104, 0.002138, 0.029778, -0.975440, 0.187055, -2.469531, -58.091660, -9.882474, -1.378491, -0.026476, 1.785196

149503946.408698, 0.019242, -0.016493, 0.003360, 0.029778, -0.975440, 0.187055, -2.519999, -58.055500, -9.892308, -1.378365, -0.026544, 1.785059

149503946.409736, 0.022602, -0.012828, 0.001833, 0.044666, -0.959957, 0.187055, -2.560374, -58.026573, -9.900176, -1.378134, -0.026932, 1.785684

149503946.410787, 0.020769, -0.014050, 0.002443, 0.044666, -0.959957, 0.187055, -2.592674, -58.003429, -9.906470, -1.377923, -0.027309, 1.786338

149503946.411829, 0.016493, -0.015882, 0.002443, 0.029778, -0.975440, 0.187055, -2.556905, -57.944099, -9.911506, -1.377828, -0.027369, 1.786210

149503946.412858, 0.020769, -0.016188, 0.000305, 0.029778, -0.975440, 0.187055, -2.528290, -57.896633, -9.915534, -1.377693, -0.027449, 1.786054

149503946.413878, 0.018937, -0.015882, 0.001833, -0.000000, -0.975440, 0.171467, -2.505398, -57.858662, -9.918756, -1.377866, -0.026896, 1.784432

149503946.414884, 0.015882, -0.012523, 0.002138, -0.000000, -0.975440, 0.171467, -2.487084, -57.828285, -9.921334, -1.378068, -0.026344, 1.782791

149503946.415922, 0.016493, -0.015577, 0.004276, 0.029778, -0.975440, 0.202643, -2.513506, -58.008064, -9.970044, -1.377663, -0.026405, 1.782517

149503946.416977, 0.023213, -0.014661, 0.003360, 0.029778, -0.975440, 0.202643, -2.534643, -58.151890, -10.009012, -1.377194, -0.026472, 1.782251

149503946.417971, 0.021991, -0.017410, 0.004581, 0.044666, -0.975440, 0.171467, -2.551553, -58.266949, -10.040187, -1.377369, -0.026840, 1.783152

149503946.419019, 0.017715, -0.012828, 0.000916, 0.044666, -0.975440, 0.171467, -2.544545, -58.236546, -9.995154, -1.377573, -0.027227, 1.783994

149503946.420076, 0.014661, -0.010690, 0.000611, 0.029778, -0.975440, 0.187055, -2.538938, -58.212223, -9.959128, -1.377500, -0.027297, 1.783830

149503946.421070, 0.016799, -0.016493, 0.001833, 0.029778, -0.975440, 0.187055, -2.534453, -58.192764, -9.930307, -1.377417, -0.027363, 1.783723

149503946.422098, 0.022297, -0.014661, 0.002749, 0.014889, -0.975440, 0.171467, -2.551401, -58.136383, -9.883927, -1.377579, -0.027109, 1.783004

149503946.423156, 0.024129, -0.015882, 0.006414, 0.014889, -0.975440, 0.171467, -2.564959, -58.091278, -9.846823, -1.377713, -0.026826, 1.782344

149503946.424197, 0.019242, -0.018631, 0.002138, 0.029778, -0.990923, 0.171467, -2.575806, -58.055195, -9.817140, -1.377956, -0.026897, 1.782549

149503946.425195, 0.020769, -0.013439, 0.002443, 0.029778, -0.990923, 0.171467, -2.543411, -58.067142, -9.840041, -1.378186, -0.026952, 1.782656

149503946.426238, 0.019853, -0.013439, 0.001833, 0.044666, -0.959957, 0.171467, -2.517494, -58.076702, -9.858362, -1.378297, -0.027342, 1.783522

149503946.427277, 0.012217, -0.015272, 0.002749, 0.044666, -0.959957, 0.171467, -2.496762, -58.084351, -9.873019, -1.378486, -0.027719, 1.784367

149503946.428275, 0.016188, -0.018631, 0.003054, 0.014889, -0.975440, 0.171467, -2.480175, -58.090469, -9.884745, -1.378693, -0.027462, 1.783601

149503946.429319, 0.019548, -0.014355, 0.002138, 0.014889, -0.975440, 0.171467, -2.507979, -58.136181, -9.987421, -1.378853, -0.027211, 1.782823

149503946.430371, 0.022907, -0.013439, 0.003360, 0.014889, -0.975440, 0.155879, -2.530221, -58.172749, -10.069562, -1.379286, -0.026949, 1.782220

149503946.431402, 0.024129, -0.013744, 0.003360, 0.029778, -0.975440, 0.155879, -2.548016, -58.202003, -10.135275, -1.379706, -0.027007, 1.782472

149503946.432407, 0.019548, -0.013439, 0.001222, 0.029778, -0.975440, 0.155879, -2.562251, -58.123367, -10.047901, -1.380170, -0.027086, 1.782743

149503946.433489, 0.020159, -0.013439, 0.000611, -0.000000, -0.975440, 0.187055, -2.573640, -58.060455, -9.978002, -1.379960, -0.026564, 1.781115

149503946.434498, 0.017715, -0.016493, 0.003971, -0.000000, -0.975440, 0.187055, -2.582750, -58.010128, -9.922082, -1.379794, -0.026024, 1.779562

149503946.435498, 0.015577, -0.013439, 0.004276, 0.029778, -0.975440, 0.187055, -2.631111, -58.031090, -9.877347, -1.379676, -0.026086, 1.779618

149503946.436546, 0.013134, -0.017715, 0.002749, 0.029778, -0.975440, 0.187055, -2.669800, -58.047859, -9.841558, -1.379579, -0.026171, 1.779762

149503946.437606, 0.015272, -0.015882, 0.004276, 0.014889, -0.959957, 0.171467, -2.700752, -58.061275, -9.812928, -1.379710, -0.025936, 1.779287

149503946.438596, 0.017410, -0.015272, 0.004887, 0.014889, -0.959957, 0.171467, -2.643367, -58.194458, -9.859996, -1.379828, -0.025699, 1.778740

149503946.439624, 0.018631, -0.016188, 0.002749, 0.044666, -0.975440, 0.202643, -2.597460, -58.301003, -9.897650, -1.379363, -0.026082, 1.779362

149503946.440679, 0.016188, -0.014966, 0.000305, 0.044666, -0.975440, 0.202643, -2.560734, -58.386238, -9.927773, -1.378929, -0.026480, 1.779921

149503946.441672, 0.014966, -0.014355, -0.000000, 0.014889, -0.990923, 0.171467, -2.531353, -58.454426, -9.951871, -1.379192, -0.026265, 1.779243

149503946.442725, 0.020159, -0.012217, 0.003054, 0.014889, -0.990923, 0.171467, -2.507848, -58.427345, -9.947825, -1.379388, -0.026020, 1.778549

149503946.443732, 0.018021, -0.015272, 0.002443, 0.029778, -0.990923, 0.187055, -2.489044, -58.405682, -9.944590, -1.379311, -0.026095, 1.778501

149503946.444769, 0.017104, -0.013439, 0.000916, 0.029778, -0.990923, 0.187055, -2.474001, -58.388348, -9.942000, -1.379240, -0.026180, 1.778423

149503946.445838, 0.018631, -0.017104, -0.000000, 0.029778, -0.944474, 0.218231, -2.482503, -58.272442, -9.939929, -1.378340, -0.026314, 1.778053

149503946.446838, 0.018021, -0.018021, 0.002138, 0.029778, -0.944474, 0.218231, -2.489305, -58.179718, -9.938272, -1.377477, -0.026424, 1.777699

149503946.447881, 0.011912, -0.014661, 0.000916, 0.029778, -0.959957, 0.171467, -2.494746, -58.105537, -9.936947, -1.377690, -0.026526, 1.777836

149503946.448894, 0.019853, -0.011912, -0.000916, 0.029778, -0.959957, 0.171467, -2.499099, -58.087009, -9.935886, -1.377823, -0.026637, 1.777940

149503946.449935, 0.016493, -0.014050, 0.001222, 0.044666, -0.975440, 0.171467, -2.502582, -58.072189, -9.935039, -1.378031, -0.027029, 1.778874

149503946.451005, 0.013744, -0.014355, -0.003665, 0.044666, -0.975440, 0.171467, -2.505368, -58.060333, -9.934360, -1.378258, -0.027463, 1.779789

149503946.452022, 0.013744, -0.016493, -0.000916, 0.044666, -0.975440, 0.140292, -2.507596, -58.050846, -9.933817, -1.379108, -0.027890, 1.781195

149503946.453023, 0.010996, -0.017715, 0.001222, 0.044666, -0.975440, 0.140292, -2.509379, -58.247337, -9.910059, -1.379971, -0.028289, 1.782596

149503946.454105, 0.019242, -0.013439, 0.000611, 0.014889, -0.944474, 0.187055, -2.510806, -58.404530, -9.891052, -1.379670, -0.028056, 1.781672

149503946.455103, 0.017104, -0.017410, 0.000916, 0.014889, -0.944474, 0.187055, -2.511947, -58.530285, -9.875847, -1.379413, -0.027830, 1.780797

149503946.456101, 0.018021, -0.013744, 0.001222, 0.044666, -0.975440, 0.187055, -2.492323, -58.385990, -9.863683, -1.379274, -0.028186, 1.781458

149503946.457141, 0.014050, -0.014966, 0.002138, 0.044666, -0.975440, 0.187055, -2.476625, -58.270554, -9.853951, -1.379173, -0.028529, 1.782114

149503946.458200, 0.019242, -0.013439, 0.003665, 0.014889, -0.959957, 0.202643, -2.464066, -58.178207, -9.846167, -1.378641, -0.028261, 1.781052

149503946.459193, 0.018937, -0.012217, 0.002749, 0.014889, -0.959957, 0.202643, -2.515628, -58.165554, -9.933234, -1.378135, -0.028005, 1.780023

149503946.460261, 0.010996, -0.012828, -0.001833, 0.014889, -0.959957, 0.202643, -2.556877, -58.155430, -10.002889, -1.377709, -0.027801, 1.779049

149503946.461277, 0.019242, -0.015272, 0.000916, 0.014889, -0.975440, 0.140292, -2.589876, -58.147331, -10.058612, -1.378524, -0.027557, 1.778768

149503946.462316, 0.024435, -0.016188, 0.001527, 0.014889, -0.975440, 0.140292, -2.595740, -58.079628, -10.056542, -1.379265, -0.027313, 1.778513

149503946.463318, 0.015882, -0.018326, 0.000305, 0.044666, -0.959957, 0.171467, -2.600430, -58.025467, -10.054887, -1.379402, -0.027720, 1.779531

149503946.464369, 0.018326, -0.018326, 0.002443, 0.044666, -0.959957, 0.171467, -2.604183, -57.982136, -10.053562, -1.379504, -0.028098, 1.780545

149503946.465411, 0.015882, -0.015272, 0.002138, 0.029778, -0.975440, 0.202643, -2.607185, -57.947472, -10.052503, -1.379076, -0.028144, 1.780380

149503946.466443, 0.019242, -0.016799, 0.003360, 0.029778, -0.975440, 0.202643, -2.589050, -58.021782, -10.074979, -1.378624, -0.028180, 1.780213

149503946.467440, 0.017715, -0.016188, 0.002443, 0.044666, -0.959957, 0.202643, -2.574542, -58.081230, -10.092960, -1.378135, -0.028530, 1.780735

149503946.468484, 0.017410, -0.015577, 0.006109, 0.044666, -0.959957, 0.202643, -2.562936, -58.128788, -10.107346, -1.377652, -0.028836, 1.781242

149503946.469530, 0.010690, -0.011912, 0.001527, 0.044666, -0.975440, 0.187055, -2.553651, -58.085201, -10.048882, -1.377615, -0.029167, 1.781898

149503946.470570, 0.021686, -0.016188, -0.000305, 0.044666, -0.975440, 0.187055, -2.546223, -58.050331, -10.002110, -1.377469, -0.029519, 1.782583

149503946.471599, 0.022602, -0.015882, 0.002443, 0.029778, -0.959957, 0.171467, -2.540281, -58.022438, -9.964693, -1.377577, -0.029545, 1.782674

149503946.472614, 0.018326, -0.015882, 0.000305, 0.029778, -0.959957, 0.171467, -2.556063, -58.040939, -10.004731, -1.377728, -0.029591, 1.782764

149503946.473659, 0.017104, -0.016188, 0.001833, 0.014889, -0.975440, 0.187055, -2.568689, -58.055740, -10.036762, -1.377623, -0.029311, 1.781929

149503946.474704, 0.017410, -0.011606, 0.000916, 0.014889, -0.975440, 0.187055, -2.578790, -58.067581, -10.062387, -1.377516, -0.029036, 1.781067

149503946.475714, 0.019853, -0.013439, 0.001222, 0.029778, -0.959957, 0.171467, -2.586870, -58.117870, -10.059563, -1.377653, -0.029080, 1.781184

149503946.476755, 0.020464, -0.014661, 0.000305, 0.029778, -0.959957, 0.171467, -2.593335, -58.158100, -10.057303, -1.377776, -0.029134, 1.781319

149503946.477744, 0.015272, -0.013439, 0.000916, 0.029778, -0.975440, 0.202643, -2.598506, -58.190285, -10.055496, -1.377396, -0.029167, 1.781100

149503946.478801, 0.016188, -0.017104, 0.003360, 0.029778, -0.975440, 0.202643, -2.602644, -58.216030, -10.054050, -1.377005, -0.029183, 1.780939

149503946.479838, 0.022297, -0.018021, 0.003971, 0.029778, -0.975440, 0.171467, -2.585417, -58.195812, -10.052894, -1.377180, -0.029196, 1.781121

149503946.480852, 0.016188, -0.014355, 0.001222, 0.029778, -0.975440, 0.171467, -2.571636, -58.179638, -10.051968, -1.377415, -0.029229, 1.781241

149503946.481910, 0.018326, -0.017410, 0.002138, 0.044666, -0.975440, 0.202643, -2.560611, -58.166698, -10.051228, -1.376999, -0.029552, 1.781765

149503946.482903, 0.011912, -0.015577, 0.000611, 0.044666, -0.975440, 0.202643, -2.531255, -58.156345, -9.980663, -1.376664, -0.029878, 1.782236

149503946.483943, 0.020159, -0.017715, 0.000305, 0.014889, -0.944474, 0.202643, -2.507770, -58.148064, -9.924212, -1.376111, -0.029631, 1.781219

149503946.484988, 0.022297, -0.016188, 0.003971, 0.014889, -0.944474, 0.202643, -2.488982, -58.141438, -9.879050, -1.375547, -0.029348, 1.780205

149503946.486025, 0.020769, -0.013744, 0.003665, 0.044666, -0.975440, 0.187055, -2.473951, -58.197361, -9.959541, -1.375451, -0.029652, 1.780850

149503946.487062, 0.017104, -0.014966, 0.001222, 0.044666, -0.975440, 0.187055, -2.461927, -58.242100, -10.023934, -1.375396, -0.029977, 1.781465

149503946.488060, 0.022297, -0.013134, 0.003971, 0.044666, -0.975440, 0.187055, -2.452307, -58.277893, -10.075449, -1.375298, -0.030264, 1.782028

149503946.489107, 0.025045, -0.014966, 0.005803, 0.029778, -0.975440, 0.218231, -2.444612, -58.306526, -10.116660, -1.374553, -0.030234, 1.781531

149503946.490147, 0.019853, -0.014050, 0.002443, 0.029778, -0.975440, 0.218231, -2.438455, -58.247803, -10.126306, -1.373878, -0.030236, 1.781020

149503946.491146, 0.018021, -0.010690, 0.003665, 0.014889, -0.975440, 0.202643, -2.433530, -58.200821, -10.134022, -1.373537, -0.029920, 1.779893

149503946.492221, 0.015577, -0.012828, 0.002443, 0.014889, -0.975440, 0.202643, -2.429590, -58.163239, -10.140195, -1.373217, -0.029626, 1.778812

149503946.493234, 0.017410, -0.009774, 0.004276, 0.014889, -0.975440, 0.202643, -2.446974, -58.153580, -10.145133, -1.372894, -0.029314, 1.777734

149503946.494234, 0.021380, -0.009774, 0.003360, 0.014889, -0.975440, 0.202643, -2.460882, -58.145851, -10.149083, -1.372540, -0.029017, 1.776687

149503946.495324, 0.029016, 0.027489, 0.002443, 0.044666, -0.959957, 0.187055, -2.472008, -58.139668, -10.152244, -1.372334, -0.029268, 1.776928

149503946.496331, 0.046120, 0.106901, 0.002138, 0.044666, -0.959957, 0.187055, -2.501445, -58.134720, -10.108124, -1.371965, -0.029368, 1.776452

149503946.497369, 0.053145, 0.132558, 0.001527, -0.000000, -0.975440, 0.187055, -2.524994, -58.130764, -10.072828, -1.371549, -0.028491, 1.773434

149503946.498359, 0.035736, 0.043982, 0.001527, -0.000000, -0.975440, 0.187055, -2.543834, -58.127598, -10.044592, -1.371363, -0.027814, 1.771400

149503946.499418, 0.013134, -0.021686, 0.001222, 0.014889, -0.959957, 0.187055, -2.620515, -58.084251, -10.091974, -1.371368, -0.027592, 1.770874

149503946.500456, 0.017410, -0.017104, 0.001527, 0.014889, -0.959957, 0.187055, -2.681860, -58.049572, -10.129881, -1.371331, -0.027361, 1.770361

149503946.501466, 0.019853, -0.018326, 0.005803, 0.029778, -0.975440, 0.187055, -2.730936, -58.021828, -10.160206, -1.371340, -0.027394, 1.770689

149503946.502520, 0.018937, -0.015577, 0.005498, 0.029778, -0.975440, 0.187055, -2.770196, -57.999634, -10.184465, -1.371349, -0.027423, 1.771022

149503946.503513, 0.014966, -0.009468, 0.005803, 0.029778, -0.990923, 0.202643, -2.719459, -58.002289, -10.133902, -1.371160, -0.027426, 1.771086

149503946.504554, 0.019242, -0.013134, 0.003971, 0.029778, -0.990923, 0.202643, -2.678870, -58.004410, -10.093451, -1.370926, -0.027453, 1.771157

149503946.505600, 0.009468, -0.015577, 0.002443, 0.014889, -0.975440, 0.187055, -2.646398, -58.006107, -10.061090, -1.371037, -0.027207, 1.770619

149503946.506638, 0.011301, -0.017410, 0.003054, 0.014889, -0.975440, 0.187055, -2.620421, -58.007465, -9.988553, -1.371129, -0.026964, 1.770097

149503946.507673, 0.023518, -0.017410, 0.007025, 0.029778, -0.975440, 0.187055, -2.599639, -58.008553, -9.930524, -1.371099, -0.026990, 1.770352

149503946.508669, 0.026878, -0.014966, 0.005498, 0.029778, -0.975440, 0.187055, -2.583014, -58.009422, -9.884100, -1.371044, -0.027026, 1.770562

149503946.509715, 0.025045, -0.014966, 0.002749, 0.074444, -0.959957, 0.171467, -2.590249, -58.071342, -9.940257, -1.371189, -0.028040, 1.773266

149503946.510756, 0.020159, -0.014966, 0.000916, 0.074444, -0.959957, 0.171467, -2.596038, -58.120876, -9.985183, -1.371385, -0.029051, 1.775903

149503946.511756, 0.011912, -0.014966, -0.000305, 0.029778, -0.975440, 0.155879, -2.600669, -58.160503, -10.021123, -1.372091, -0.029111, 1.776361

149503946.512829, 0.012217, -0.010996, 0.001833, 0.029778, -0.975440, 0.155879, -2.604374, -58.130981, -9.909931, -1.372770, -0.029142, 1.776813

149503946.513838, 0.010996, -0.012217, 0.004581, 0.044666, -0.959957, 0.171467, -2.566265, -58.107365, -9.820978, -1.373083, -0.029463, 1.777839

149503946.514869, 0.019242, -0.016493, 0.001527, 0.044666, -0.959957, 0.171467, -2.535778, -58.088470, -9.749816, -1.373306, -0.029816, 1.778873

149503946.515918, 0.021075, -0.013439, 0.004276, 0.029778, -0.975440, 0.202643, -2.511388, -58.073357, -9.692885, -1.372947, -0.029802, 1.778704

149503946.516926, 0.019548, -0.011912, 0.005498, 0.029778, -0.975440, 0.202643, -2.532949, -58.061264, -9.717314, -1.372618, -0.029775, 1.778535

149503946.517967, 0.017715, -0.016799, 0.002749, 0.029778, -0.975440, 0.202643, -2.550198, -58.051590, -9.736856, -1.372309, -0.029784, 1.778429

149503946.518997, 0.022907, -0.017104, 0.003360, 0.044666, -0.975440, 0.187055, -2.563997, -58.043854, -9.752490, -1.372259, -0.030091, 1.779270

149503946.520010, 0.022297, -0.014966, 0.003054, 0.044666, -0.975440, 0.187055, -2.595572, -58.037663, -9.788321, -1.372218, -0.030391, 1.780091

149503946.521047, 0.017715, -0.014355, 0.003054, 0.029778, -0.975440, 0.155879, -2.620833, -58.032711, -9.816986, -1.372845, -0.030390, 1.780539

149503946.522105, 0.019853, -0.014661, 0.000305, 0.029778, -0.975440, 0.155879, -2.641041, -58.028748, -9.839918, -1.373434, -0.030417, 1.780994

149503946.523113, 0.017104, -0.014355, 0.003971, 0.029778, -0.959957, 0.187055, -2.657208, -57.984760, -9.834940, -1.373367, -0.030407, 1.781054

149503946.524151, 0.018937, -0.012217, 0.004581, 0.029778, -0.959957, 0.187055, -2.670141, -57.949570, -9.830957, -1.373277, -0.030386, 1.781109

149503946.525168, 0.014966, -0.009774, 0.002443, 0.014889, -0.975440, 0.171467, -2.680488, -57.921417, -9.827771, -1.373596, -0.030066, 1.780534

149503946.526212, 0.013439, -0.013134, 0.002443, 0.014889, -0.975440, 0.171467, -2.688765, -57.898895, -9.825222, -1.373922, -0.029760, 1.780016

149503946.527249, 0.021075, -0.014966, 0.003665, 0.029778, -0.959957, 0.171467, -2.695387, -57.901287, -9.846507, -1.374115, -0.029770, 1.780327

149503946.528256, 0.014355, -0.015882, 0.003054, 0.029778, -0.959957, 0.171467, -2.700684, -57.903202, -9.863535, -1.374376, -0.029788, 1.780636

149503946.529298, 0.020769, -0.016188, 0.003665, -0.000000, -0.975440, 0.187055, -2.704922, -57.904732, -9.877157, -1.374285, -0.029182, 1.779221

149503946.530363, 0.017715, -0.011301, 0.000916, -0.000000, -0.975440, 0.187055, -2.687777, -57.905956, -9.864731, -1.374222, -0.028607, 1.777768

149503946.531345, 0.015272, -0.010690, 0.001833, 0.029778, -0.959957, 0.202643, -2.674060, -57.906937, -9.854790, -1.373849, -0.028646, 1.777689

149503946.532398, 0.012217, -0.010385, 0.001833, 0.029778, -0.959957, 0.202643, -2.663086, -57.907722, -9.846837, -1.373505, -0.028683, 1.777608

149503946.533437, 0.016799, -0.015272, 0.003054, 0.029778, -0.975440, 0.171467, -2.633771, -57.908348, -9.887123, -1.373804, -0.028712, 1.777910

149503946.534444, 0.019853, -0.016493, 0.002443, 0.029778, -0.975440, 0.171467, -2.610319, -57.908852, -9.919352, -1.374072, -0.028748, 1.778183

149503946.535489, 0.024129, -0.014661, 0.000611, 0.029778, -0.959957, 0.187055, -2.591558, -57.909252, -9.945134, -1.373914, -0.028805, 1.778219

149503946.536536, 0.016493, -0.014661, 0.003665, 0.029778, -0.959957, 0.187055, -2.514939, -58.032021, -9.942436, -1.373838, -0.028830, 1.778190

149503946.537547, 0.020159, -0.015882, 0.004276, 0.029778, -0.959957, 0.218231, -2.453645, -58.130238, -9.940278, -1.373112, -0.028855, 1.777798

149503946.538584, 0.018326, -0.017715, -0.000611, 0.029778, -0.959957, 0.218231, -2.404609, -58.208809, -9.938552, -1.372414, -0.028931, 1.777383

149503946.539605, 0.020464, -0.015577, 0.002443, 0.014889, -0.975440, 0.187055, -2.365380, -58.271667, -9.937171, -1.372385, -0.028654, 1.776468

149503946.540613, 0.016188, -0.010690, 0.001527, 0.014889, -0.975440, 0.187055, -2.375070, -58.179096, -9.959390, -1.372400, -0.028382, 1.775527

149503946.541649, 0.015882, -0.010996, 0.003054, 0.014889, -0.975440, 0.202643, -2.382822, -58.105042, -9.977165, -1.372106, -0.028109, 1.774493

149503946.542698, 0.015577, -0.012828, 0.001833, 0.014889, -0.975440, 0.202643, -2.389023, -58.045795, -9.991385, -1.371819, -0.027857, 1.773501

149503946.543707, 0.012828, -0.018021, 0.000611, 0.014889, -0.959957, 0.202643, -2.455594, -58.100441, -9.979438, -1.371509, -0.027637, 1.772619

149503946.544745, 0.021686, -0.015577, 0.000611, 0.014889, -0.959957, 0.202643, -2.508850, -58.144157, -9.969879, -1.371112, -0.027417, 1.771784

149503946.545779, 0.018937, -0.013744, 0.001833, 0.014889, -0.959957, 0.202643, -2.551455, -58.179131, -9.962233, -1.370751, -0.027186, 1.770988

149503946.546823, 0.018326, -0.014966, 0.002443, 0.014889, -0.975440, 0.171467, -2.544466, -58.125477, -9.979439, -1.371085, -0.026940, 1.770507

149503946.547884, 0.017410, -0.016493, 0.003054, 0.014889, -0.975440, 0.171467, -2.538875, -58.082554, -9.993204, -1.371419, -0.026697, 1.770048

149503946.548866, 0.014355, -0.015577, 0.004581, 0.029778, -0.990923, 0.202643, -2.534402, -58.048214, -10.004216, -1.371238, -0.026738, 1.770043

149503946.549901, 0.014661, -0.013744, 0.001527, 0.029778, -0.990923, 0.202643, -2.530824, -58.020744, -10.013026, -1.371050, -0.026805, 1.770018

149503946.550987, 0.018021, -0.014355, 0.003971, 0.029778, -0.944474, 0.187055, -2.507425, -58.039581, -9.996750, -1.370947, -0.026875, 1.770130

149503946.551994, 0.021686, -0.014661, 0.002138, 0.029778, -0.944474, 0.187055, -2.488706, -58.054653, -9.983729, -1.370823, -0.026964, 1.770213

149503946.552995, 0.016799, -0.015577, 0.003971, 0.029778, -0.975440, 0.171467, -2.473731, -58.066711, -9.973312, -1.371182, -0.027019, 1.770488

149503946.554029, 0.021686, -0.014966, 0.006109, 0.029778, -0.975440, 0.171467, -2.523360, -58.055950, -9.918331, -1.371478, -0.027052, 1.770820

149503946.555089, 0.030849, 0.046120, 0.012523, 0.074444, -1.021889, 0.218231, -2.563062, -58.047340, -9.874346, -1.370887, -0.027701, 1.772133

149503946.556081, 0.082161, 0.285885, 0.008247, 0.074444, -1.021889, 0.218231, -2.594825, -58.040451, -9.839158, -1.369765, -0.027929, 1.771190

149503946.557109, 0.116064, 0.387899, -0.000000, 0.014889, -0.959957, 0.218231, -2.620235, -58.055347, -9.811007, -1.368035, -0.026899, 1.766394

149503946.558166, 0.098960, 0.299629, 0.004887, 0.014889, -0.959957, 0.218231, -2.640563, -58.067265, -9.788487, -1.366510, -0.025995, 1.762516

149503946.559203, 0.069944, 0.153938, 0.001527, 0.014889, -0.959957, 0.202643, -2.656825, -58.076797, -9.770471, -1.365681, -0.025446, 1.760360

149503946.560202, 0.029627, 0.026878, 0.004581, 0.014889, -0.959957, 0.202643, -2.608226, -58.043610, -9.826030, -1.365323, -0.025144, 1.759477

149503946.561254, 0.023213, -0.009468, 0.006109, 0.029778, -0.959957, 0.202643, -2.569347, -58.017059, -9.870477, -1.365035, -0.025206, 1.759671

149503946.562293, 0.030238, 0.001222, 0.008552, 0.029778, -0.959957, 0.202643, -2.538243, -57.995819, -9.906034, -1.364682, -0.025220, 1.759725

149503946.563329, 0.036957, 0.087048, 0.003665, 0.044666, -0.959957, 0.155879, -2.513361, -57.978828, -9.934481, -1.365172, -0.025448, 1.760261

149503946.564327, 0.067501, 0.212276, -0.002443, 0.044666, -0.959957, 0.155879, -2.534527, -58.006050, -9.910589, -1.365339, -0.025488, 1.759635

149503946.565371, 0.082772, 0.221133, -0.005192, 0.014889, -0.959957, 0.155879, -2.551460, -58.027828, -9.891477, -1.365324, -0.024869, 1.757169

149503946.566412, 0.059254, 0.139888, -0.004581, 0.014889, -0.959957, 0.155879, -2.565007, -58.045250, -9.876186, -1.365574, -0.024429, 1.755589

149503946.567450, 0.023213, 0.007330, -0.001527, 0.029778, -0.990923, 0.202643, -2.473162, -58.059189, -9.840631, -1.365405, -0.024529, 1.755614

149503946.568479, 0.013744, -0.025962, 0.003665, 0.029778, -0.990923, 0.202643, -2.399687, -58.070339, -9.812185, -1.365346, -0.024643, 1.755916

149503946.569490, 0.013744, -0.021380, 0.004276, 0.014889, -0.959957, 0.218231, -2.340906, -58.079258, -9.789430, -1.364849, -0.024462, 1.755232

149503946.570534, 0.018021, -0.012828, 0.006109, 0.014889, -0.959957, 0.218231, -2.376027, -58.106804, -9.794549, -1.364313, -0.024249, 1.754517

149503946.571536, 0.015272, -0.019548, 0.007330, -0.000000, -0.959957, 0.202643, -2.404124, -58.128838, -9.798644, -1.364119, -0.023734, 1.753262

149503946.572592, 0.017715, -0.024740, 0.012523, -0.000000, -0.959957, 0.202643, -2.426601, -58.146465, -9.801920, -1.363899, -0.023186, 1.752127

149503946.573618, 0.011606, -0.023518, 0.007941, -0.000000, -0.975440, 0.233819, -2.444583, -58.160568, -9.734569, -1.363203, -0.022714, 1.750857

149503946.574642, 0.021686, -0.015272, 0.003665, 0.014889, -0.975440, 0.233819, -2.397360, -58.171852, -9.680688, -1.362432, -0.022563, 1.750182

149503946.575655, 0.018631, -0.014966, 0.002443, 0.014889, -0.975440, 0.233819, -2.359581, -58.180878, -9.637584, -1.361710, -0.022427, 1.749486

149503946.576692, 0.015882, -0.019548, 0.001833, 0.014889, -0.975440, 0.187055, -2.329358, -58.188099, -9.603100, -1.361943, -0.022296, 1.749186

149503946.577734, 0.014661, -0.019853, -0.000000, 0.014889, -0.975440, 0.187055, -2.366789, -58.173466, -9.622161, -1.362184, -0.022188, 1.748925

149503946.578785, 0.022602, -0.007330, 0.001222, 0.014889, -0.959957, 0.218231, -2.396733, -58.161758, -9.637410, -1.361652, -0.022055, 1.748309

149503946.579777, 0.022297, -0.012828, -0.002749, 0.014889, -0.959957, 0.218231, -2.420689, -58.152393, -9.649610, -1.361148, -0.021973, 1.747764

149503946.580821, 0.018326, -0.014966, -0.003360, 0.014889, -0.975440, 0.187055, -2.439853, -58.104088, -9.682693, -1.361366, -0.021895, 1.747538

149503946.581872, 0.008858, -0.018631, -0.002138, 0.014889, -0.975440, 0.187055, -2.455185, -58.065441, -9.709159, -1.361677, -0.021815, 1.747367

149503946.582927, 0.012217, -0.016188, -0.000916, 0.014889, -0.975440, 0.202643, -2.467450, -58.034523, -9.730332, -1.361638, -0.021721, 1.747055

149503946.583903, 0.014050, -0.016188, 0.002138, 0.014889, -0.975440, 0.202643, -2.477262, -58.111832, -9.770595, -1.361592, -0.021596, 1.746746

149503946.584941, 0.018326, -0.016493, 0.000305, 0.014889, -0.959957, 0.202643, -2.485112, -58.173676, -9.802805, -1.361431, -0.021499, 1.746439

149503946.585974, 0.020769, -0.016188, 0.000611, 0.014889, -0.959957, 0.202643, -2.491392, -58.223152, -9.828573, -1.361249, -0.021401, 1.746137

149503946.587029, 0.015272, -0.012523, 0.002138, 0.014889, -0.959957, 0.171467, -2.496416, -58.262733, -9.849188, -1.361750, -0.021280, 1.746088

149503946.588027, 0.021075, -0.015882, 0.002138, 0.014889, -0.959957, 0.171467, -2.459363, -58.233173, -9.889004, -1.362192, -0.021168, 1.746022

149503946.589079, 0.018631, -0.017410, 0.002138, 0.014889, -0.975440, 0.202643, -2.429720, -58.209526, -9.920856, -1.362077, -0.021058, 1.745692

149503946.590140, 0.016188, -0.018021, 0.004276, 0.014889, -0.975440, 0.202643, -2.406005, -58.190609, -9.946339, -1.361989, -0.020930, 1.745357

149503946.591132, 0.014966, -0.017410, 0.004581, 0.029778, -0.975440, 0.171467, -2.345961, -58.175476, -9.850104, -1.362541, -0.021113, 1.746044

149503946.592155, 0.016188, -0.016188, 0.003665, 0.029778, -0.975440, 0.171467, -2.297926, -58.163368, -9.773116, -1.363065, -0.021298, 1.746678

149503946.593211, 0.022297, -0.018021, 0.004887, 0.014889, -0.959957, 0.171467, -2.259497, -58.153683, -9.711526, -1.363457, -0.021160, 1.746471

149503946.594249, 0.012523, -0.014050, 0.003665, 0.014889, -0.959957, 0.171467, -2.249291, -58.125526, -9.638930, -1.363943, -0.021029, 1.746223

149503946.595246, 0.031460, -0.002749, -0.001222, 0.014889, -0.975440, 0.202643, -2.241126, -58.103001, -9.580853, -1.363675, -0.020924, 1.745607

149503946.596296, 0.040623, -0.002443, 0.000916, 0.014889, -0.975440, 0.202643, -2.234594, -58.084980, -9.534392, -1.363301, -0.020799, 1.745007

149503946.597336, 0.032681, -0.004276, 0.004581, 0.044666, -0.959957, 0.171467, -2.290977, -57.988930, -9.567195, -1.363567, -0.021282, 1.746390

149503946.598328, 0.026573, -0.007941, 0.005803, 0.044666, -0.959957, 0.171467, -2.336084, -57.912090, -9.593437, -1.363903, -0.021752, 1.747817

149503946.599387, 0.015577, -0.015272, 0.006720, 0.014889, -0.975440, 0.171467, -2.372170, -57.850620, -9.614430, -1.364402, -0.021578, 1.747707

149503946.600447, 0.013134, -0.018631, 0.004581, 0.014889, -0.975440, 0.171467, -2.401038, -57.801441, -9.631226, -1.364917, -0.021436, 1.747656

149503946.601424, 0.011301, -0.020159, 0.000916, 0.014889, -0.975440, 0.187055, -2.424133, -57.884548, -9.644662, -1.365140, -0.021335, 1.747473

149503946.602463, 0.006720, -0.022297, -0.000000, 0.029778, -0.975440, 0.187055, -2.442609, -57.951035, -9.655411, -1.365398, -0.021557, 1.748121

149503946.603498, 0.002138, -0.025045, 0.001222, 0.029778, -0.975440, 0.187055, -2.457389, -58.004223, -9.664010, -1.365699, -0.021768, 1.748796

149503946.604558, 0.000000, -0.029932, 0.002138, 0.029778, -0.959957, 0.202643, -2.448677, -58.026367, -9.647565, -1.365646, -0.021981, 1.749336

149503946.605555, -0.001833, -0.035736, 0.001222, 0.029778, -0.959957, 0.202643, -2.441708, -58.044083, -9.634409, -1.365613, -0.022207, 1.749895

149503946.606604, -0.012217, -0.048869, 0.001527, 0.044666, -0.975440, 0.155879, -2.436132, -58.058254, -9.623884, -1.366665, -0.022790, 1.751987

149503946.607615, -0.013439, -0.090713, -0.000000, 0.044666, -0.975440, 0.155879, -2.411135, -58.110409, -9.592140, -1.367714, -0.023454, 1.754405

149503946.608651, -0.026267, -0.186619, -0.000000, 0.029778, -0.990923, 0.187055, -2.391138, -58.152130, -9.566745, -1.368354, -0.023959, 1.756525

149503946.609672, -0.027184, -0.186008, -0.006414, 0.029778, -0.990923, 0.187055, -2.375140, -58.185509, -9.546429, -1.368987, -0.024508, 1.758545

149503946.610727, -0.005498, -0.110567, -0.023213, 0.029778, -0.975440, 0.202643, -2.362342, -58.212212, -9.530176, -1.369010, -0.025079, 1.759603

149503946.611766, 0.033903, -0.072998, -0.095906, 0.029778, -0.975440, 0.202643, -2.352103, -58.233574, -9.517174, -1.368618, -0.026281, 1.760092

149503946.612762, 0.015577, -0.093462, -0.103847, 0.029778, -0.975440, 0.202643, -2.343912, -58.250664, -9.506772, -1.368432, -0.027529, 1.760724

149503946.613812, 0.006414, -0.113926, -0.075747, 0.029778, -0.975440, 0.202643, -2.337359, -58.264336, -9.498450, -1.368345, -0.028575, 1.761641

149503946.614860, 0.007330, -0.123089, -0.073609, 0.059555, -0.990923, 0.171467, -2.352653, -58.234455, -9.585090, -1.368896, -0.030208, 1.764571

149503946.615851, 0.006109, -0.102931, -0.103847, 0.059555, -0.990923, 0.171467, -2.364888, -58.210552, -9.654401, -1.369447, -0.032001, 1.767125

149503946.616895, 0.015272, -0.053451, -0.191812, 0.044666, -0.959957, 0.249407, -2.374677, -58.191429, -9.709849, -1.368239, -0.034294, 1.767287

149503946.617942, 0.011301, -0.107818, -0.181122, 0.044666, -0.959957, 0.249407, -2.259289, -58.196541, -9.707561, -1.367116, -0.036553, 1.767919

149503946.618939, -0.016188, -0.166766, -0.133169, 0.104221, -0.975440, 0.187055, -2.166979, -58.200630, -9.705729, -1.367496, -0.039537, 1.772680

149503946.619978, -0.003971, -0.152105, -0.057421, 0.104221, -0.975440, 0.187055, -2.093131, -58.203899, -9.704265, -1.367766, -0.041742, 1.777350

149503946.621057, 0.014355, -0.086132, 0.096211, 0.014889, -0.959957, 0.187055, -2.054589, -58.206516, -9.796389, -1.367854, -0.040391, 1.777092

149503946.622064, 0.017410, -0.043982, 0.117897, 0.014889, -0.959957, 0.187055, -2.023756, -58.208611, -9.870088, -1.367902, -0.038828, 1.776363

149503946.623064, 0.006109, 0.015882, 0.104153, 0.074444, -0.928990, 0.218231, -1.999089, -58.210285, -9.929048, -1.367265, -0.038561, 1.777605

149503946.624109, -0.019853, 0.130725, -0.049480, 0.074444, -0.928990, 0.218231, -1.979355, -58.211624, -9.976215, -1.366848, -0.039557, 1.777327

149503946.625165, -0.067501, 0.214108, -0.113316, -0.015630, -0.990923, 0.171467, -1.984104, -58.171879, -10.013949, -1.368020, -0.039110, 1.771935

149503946.626157, -0.021075, 0.157909, -0.178373, -0.015630, -0.990923, 0.171467, -1.987904, -58.140083, -10.044137, -1.368701, -0.039366, 1.767206

149503946.627194, 0.248928, -0.042761, -0.209832, 0.089333, -0.836091, 0.358523, -1.990944, -58.114647, -10.068287, -1.362112, -0.042683, 1.767558

149503946.628253, 0.165239, -0.044593, -0.248317, 0.089333, -0.836091, 0.358523, -1.870157, -58.135113, -9.994310, -1.356465, -0.046385, 1.767753

149503946.629246, 0.053756, -0.037568, -0.232740, 0.089333, -0.990923, 0.311759, -1.773528, -58.151485, -9.935129, -1.354117, -0.049436, 1.768291

149503946.630305, 0.185092, -0.038790, -0.257480, 0.089333, -0.990923, 0.311759, -1.696225, -58.164585, -9.887784, -1.350417, -0.052833, 1.768710

149503946.631348, 0.326813, -0.047037, -0.288023, 0.089333, -0.990923, 0.187055, -1.490628, -58.113838, -9.756613, -1.347706, -0.056560, 1.770615

149503946.632344, 0.329562, -0.091019, -0.305127, 0.059555, -0.959957, 0.187055, -1.326150, -58.073242, -9.651675, -1.345115, -0.059753, 1.771289

149503946.633395, 0.368963, -0.109039, -0.301157, 0.059555, -0.959957, 0.187055, -1.194568, -58.040764, -9.567725, -1.342004, -0.063057, 1.772039

149503946.634439, 0.321315, -0.146302, -0.309709, 0.014889, -0.928990, 0.202643, -0.966084, -58.116821, -9.383945, -1.338987, -0.065515, 1.770442

149503946.635430, 0.216246, -0.165239, -0.354913, 0.014889, -0.928990, 0.202643, -0.783297, -58.177670, -9.236921, -1.337213, -0.068222, 1.768754

149503946.636469, 0.180205, -0.120646, -0.343612, 0.089333, -0.990923, 0.218231, -0.637067, -58.226349, -9.119303, -1.335734, -0.072311, 1.770155

149503946.637512, 0.197920, -0.071471, -0.341779, 0.089333, -0.990923, 0.218231, -0.520084, -58.265289, -9.025208, -1.334063, -0.076197, 1.770959

149503946.638570, 0.241597, -0.021075, -0.346666, 0.014889, -0.898024, 0.171467, -0.303279, -58.316853, -8.903283, -1.332385, -0.078476, 1.767572

149503946.639593, 0.274584, -0.016799, -0.386983, 0.014889, -0.898024, 0.171467, -0.129834, -58.358101, -8.805744, -1.330473, -0.080970, 1.763960

149503946.640596, 0.142332, -0.130420, -0.411418, 0.119110, -0.975440, 0.218231, 0.008921, -58.391102, -8.727713, -1.329466, -0.085979, 1.766307

149503946.641681, 0.226631, -0.181427, -0.472810, 0.119110, -0.975440, 0.218231, 0.345825, -58.417503, -8.595316, -1.327517, -0.091993, 1.768744

149503946.642686, 0.524428, -0.145080, -0.572686, 0.133999, -0.758675, 0.249407, 0.615348, -58.438622, -8.489398, -1.320803, -0.099227, 1.770837

149503946.643685, 0.826501, -0.109650, -0.926072, 0.133999, -0.758675, 0.249407, 0.830967, -58.455517, -8.404664, -1.311184, -0.109553, 1.771489

149503946.644728, 0.714101, -0.159741, -0.915687, 0.089333, -1.006406, 0.202643, 1.249898, -58.469032, -8.010341, -1.304996, -0.118555, 1.770287

149503946.645789, 0.406531, -0.132558, -0.773050, 0.089333, -1.006406, 0.202643, 1.585043, -58.479847, -7.694882, -1.302006, -0.126012, 1.768902

149503946.646780, 0.341168, -0.037568, -0.880868, 0.148888, -0.959957, 0.296171, 1.853159, -58.488499, -7.442516, -1.297824, -0.134765, 1.767851

149503946.647811, 0.597121, 0.121257, -1.006400, 0.148888, -0.959957, 0.296171, 2.067651, -58.495419, -7.240623, -1.290708, -0.144452, 1.764658

149503946.648829, 0.826806, 0.206778, -1.010677, 0.133999, -0.975440, 0.296171, 2.649972, -58.521362, -6.775896, -1.281438, -0.153280, 1.759627

149503946.649875, 0.873843, 0.176845, -1.065349, 0.133999, -0.975440, 0.296171, 3.115829, -58.542118, -6.404115, -1.271591, -0.162746, 1.754287

149503946.650926, 0.583682, -0.000000, -1.139264, 0.104221, -0.944474, 0.249407, 3.488515, -58.558723, -6.106689, -1.265764, -0.172789, 1.749361

149503946.651932, 0.365297, -0.190285, -1.253801, 0.104221, -0.944474, 0.249407, 4.259000, -58.490376, -5.635509, -1.262676, -0.183762, 1.745416

149503946.652969, 0.467006, -0.200975, -1.278846, 0.297775, -0.975440, 0.296171, 4.875387, -58.435696, -5.258565, -1.257561, -0.198807, 1.748744

149503946.653982, 0.572992, -0.352775, -1.061684, 0.297775, -0.975440, 0.296171, 5.368497, -58.391953, -4.957010, -1.252052, -0.211677, 1.753893

149503946.655034, 0.483805, -0.406225, -0.715018, 0.253109, -0.913507, 0.218231, 6.132640, -58.295734, -4.575822, -1.248983, -0.221232, 1.760723

149503946.656072, 0.277638, -0.517403, -0.428217, 0.253109, -0.913507, 0.218231, 6.743954, -58.218758, -4.270872, -1.248628, -0.228067, 1.769037

149503946.657075, 0.030849, -0.634689, -0.172875, 0.297775, -0.990923, 0.327347, 7.233005, -58.157177, -4.026912, -1.249582, -0.232651, 1.777419

149503946.658118, 0.101404, -0.557720, 0.119730, 0.297775, -0.990923, 0.327347, 7.624246, -58.189545, -3.761772, -1.249910, -0.234195, 1.785851

149503946.659177, 0.229991, -0.254120, 0.428217, 0.282887, -0.820608, 0.420875, 7.937239, -58.215439, -3.549659, -1.245402, -0.232055, 1.790371

149503946.660196, 0.188147, 0.132252, 0.532674, 0.282887, -0.820608, 0.420875, 8.187633, -58.236156, -3.379970, -1.240677, -0.227889, 1.791141

149503946.661203, 0.149662, 0.469145, 0.364992, 0.282887, -0.820608, 0.420875, 8.387948, -58.252728, -3.244218, -1.235608, -0.224360, 1.788051

149503946.662289, 0.134085, 0.730595, 0.114537, 0.208443, -0.805125, 0.436463, 8.445518, -58.245579, -3.088969, -1.229390, -0.220808, 1.778439

149503946.663297, 0.085216, 0.929737, -0.020464, 0.208443, -0.805125, 0.436463, 8.491575, -58.239861, -2.964769, -1.223509, -0.218127, 1.767188

149503946.664294, 0.024129, 1.081842, -0.066890, 0.208443, -0.898024, 0.296171, 8.528420, -58.235283, -2.865410, -1.221612, -0.215099, 1.756056

149503946.665345, 0.036041, 1.146289, -0.072388, 0.208443, -0.898024, 0.296171, 8.537360, -58.211212, -2.739274, -1.219396, -0.211778, 1.743960

149503946.666354, 0.087659, 1.045190, -0.042150, 0.178665, -0.928990, 0.249407, 8.544512, -58.191956, -2.638366, -1.218199, -0.207976, 1.732413

149503946.667393, 0.114843, 0.821003, 0.006720, 0.178665, -0.928990, 0.249407, 8.550233, -58.176552, -2.557639, -1.217191, -0.204479, 1.723183

149503946.668424, 0.078496, 0.482889, 0.105069, 0.193554, -0.959957, 0.233819, 8.534274, -58.123413, -2.516382, -1.217828, -0.201568, 1.718753

149503946.669479, -0.030849, 0.171959, 0.275806, 0.193554, -0.959957, 0.233819, 8.521506, -58.080902, -2.483376, -1.220290, -0.198113, 1.718019

149503946.670470, -0.360105, 0.011912, 0.499688, 0.193554, -0.975440, 0.249407, 8.511292, -58.046894, -2.456971, -1.226100, -0.193327, 1.719202

149503946.671522, -0.471588, -0.007941, 0.644768, 0.193554, -0.975440, 0.249407, 8.503121, -58.080910, -2.482495, -1.233293, -0.187005, 1.721135

149503946.672574, -0.302378, -0.056505, 0.631024, 0.178665, -0.898024, 0.311759, 8.332294, -58.108124, -2.502914, -1.236983, -0.181028, 1.722545

149503946.673567, -0.205862, -0.171959, 0.547946, 0.178665, -0.898024, 0.311759, 8.195631, -58.129894, -2.519250, -1.239586, -0.176632, 1.724688

149503946.674593, -0.125838, -0.231212, 0.509156, 0.193554, -0.851574, 0.358523, 8.086301, -58.147312, -2.532318, -1.240204, -0.173170, 1.727850

149503946.675635, -0.082772, -0.109345, 0.456011, 0.193554, -0.851574, 0.358523, 7.670256, -58.181652, -2.636069, -1.240151, -0.169809, 1.729949

149503946.676678, -0.024740, 0.113316, 0.288939, 0.178665, -0.805125, 0.389699, 7.337420, -58.209126, -2.719069, -1.238002, -0.167253, 1.728700

149503946.677729, 0.173180, 0.362854, 0.010079, 0.178665, -0.805125, 0.389699, 7.071151, -58.231106, -2.785469, -1.233292, -0.166576, 1.724247

149503946.678724, 0.413250, 0.562607, -0.249538, 0.148888, -0.898024, 0.296171, 6.878672, -58.248688, -2.815266, -1.228626, -0.166817, 1.716706

149503946.679790, 0.536951, 0.539699, -0.390037, 0.148888, -0.898024, 0.296171, 6.724689, -58.262753, -2.839103, -1.222347, -0.168513, 1.708745

149503946.680816, 0.531453, 0.434020, -0.349110, 0.119110, -0.990923, 0.296171, 6.601502, -58.274006, -2.858172, -1.217180, -0.169139, 1.700357

149503946.681825, 0.567188, 0.327729, -0.183870, 0.119110, -0.990923, 0.296171, 6.626172, -58.262600, -2.546892, -1.212134, -0.168528, 1.693775

149503946.682871, 0.623083, 0.188757, -0.045509, 0.133999, -0.882541, 0.280583, 6.645907, -58.253475, -2.297868, -1.206419, -0.167751, 1.690606

149503946.683876, 0.638354, 0.013134, 0.026267, 0.133999, -0.882541, 0.280583, 6.661695, -58.246178, -2.098649, -1.201246, -0.166948, 1.689481

149503946.684917, 0.632856, -0.113316, 0.046731, 0.119110, -0.928990, 0.327347, 6.674325, -58.240337, -1.939274, -1.195558, -0.165949, 1.688281

149503946.685960, 0.573908, -0.101098, 0.082161, 0.119110, -0.928990, 0.327347, 6.704966, -58.256073, -1.601858, -1.190580, -0.164588, 1.687110

149503946.686971, 0.534507, -0.046120, 0.103542, 0.133999, -0.882541, 0.311759, 6.729479, -58.268661, -1.331925, -1.186221, -0.163331, 1.686636

149503946.688007, 0.564745, -0.160352, 0.013134, 0.133999, -0.882541, 0.311759, 6.749089, -58.278732, -1.115978, -1.181628, -0.163368, 1.686937

149503946.689026, 0.572075, -0.241597, -0.047037, 0.133999, -0.882541, 0.311759, 6.785313, -58.225567, -0.756629, -1.177233, -0.164265, 1.687725

149503946.690073, 0.605062, -0.183260, -0.111177, 0.148888, -0.851574, 0.389699, 6.814293, -58.183033, -0.469150, -1.170523, -0.165927, 1.687948

149503946.691114, 0.629497, -0.148746, -0.208305, 0.148888, -0.851574, 0.389699, 6.837477, -58.149006, -0.239167, -1.163615, -0.168323, 1.687425

149503946.692116, 0.574824, -0.257174, -0.226631, 0.163776, -0.928990, 0.374111, 6.897096, -58.121784, 0.224707, -1.158697, -0.171239, 1.688316

149503946.693150, 0.538478, -0.286801, -0.135307, 0.163776, -0.928990, 0.374111, 6.944792, -58.100006, 0.595807, -1.154189, -0.173472, 1.689881

149503946.694192, 0.585209, -0.105069, -0.043066, 0.193554, -0.959957, 0.405287, 6.982948, -58.082584, 0.892686, -1.148694, -0.174518, 1.691022

149503946.695215, 0.587041, -0.052534, 0.105985, 0.193554, -0.959957, 0.405287, 7.075082, -58.048241, 1.316782, -1.143425, -0.173954, 1.692248

149503946.696255, 0.609033, -0.148440, 0.239154, 0.133999, -0.898024, 0.327347, 7.148790, -58.020763, 1.656058, -1.139163, -0.171602, 1.692890

149503946.697312, 0.726930, -0.292604, 0.260534, 0.133999, -0.898024, 0.327347, 7.207756, -57.998783, 1.927480, -1.133920, -0.169702, 1.694991

149503946.698319, 0.839329, -0.501520, 0.143248, 0.119110, -0.882541, 0.389699, 7.254928, -57.981197, 2.144617, -1.126861, -0.169555, 1.697104

149503946.699354, 0.848797, -0.664316, 0.098044, 0.119110, -0.882541, 0.389699, 7.189985, -57.967129, 2.644862, -1.119857, -0.170590, 1.700703

149503946.700394, 0.698830, -0.673784, 0.123089, 0.178665, -0.867058, 0.514402, 7.138030, -57.955875, 3.045058, -1.112210, -0.172620, 1.706369

149503946.701413, 0.456316, -0.412029, 0.153022, 0.178665, -0.867058, 0.514402, 7.096466, -57.946873, 3.365215, -1.106880, -0.173181, 1.709595

149503946.702455, 0.373850, -0.005803, 0.072693, 0.163776, -0.805125, 0.467638, 7.001606, -57.878445, 3.784608, -1.101887, -0.172596, 1.708840

149503946.703477, 0.390343, 0.206778, -0.061087, 0.163776, -0.805125, 0.467638, 6.925718, -57.823704, 4.120123, -1.096461, -0.172257, 1.705647

149503946.704485, 0.528704, 0.217468, -0.077580, 0.133999, -0.928990, 0.436463, 6.865007, -57.779911, 4.388535, -1.091502, -0.171055, 1.700864

149503946.705525, 0.885144, 0.197309, 0.005498, 0.133999, -0.928990, 0.436463, 6.857512, -57.704060, 4.859828, -1.082934, -0.169189, 1.696722

149503946.706567, 1.129490, 0.040317, 0.028711, 0.119110, -0.928990, 0.374111, 6.851515, -57.643379, 5.236863, -1.073394, -0.167562, 1.693718

149503946.707589, 1.299921, -0.238848, 0.040623, 0.119110, -0.928990, 0.374111, 6.846718, -57.594833, 5.538490, -1.062998, -0.167206, 1.693338

149503946.708627, 1.327410, -0.541227, 0.172569, 0.148888, -0.882541, 0.545578, 6.842880, -57.555996, 5.779793, -1.049507, -0.167926, 1.697096

149503946.709635, 1.290758, -0.713185, 0.312152, 0.148888, -0.882541, 0.545578, 6.737128, -57.484112, 6.532610, -1.037375, -0.168318, 1.702932

149503946.710691, 1.129795, -0.683253, 0.356440, 0.238220, -0.727709, 0.592342, 6.652526, -57.426605, 7.134864, -1.024037, -0.170329, 1.712083

149503946.711729, 0.854600, -0.538172, 0.397062, 0.238220, -0.727709, 0.592342, 6.584845, -57.380600, 7.616667, -1.013760, -0.171266, 1.719985

149503946.712756, 0.740980, -0.201586, 0.356440, 0.223331, -0.634810, 0.498814, 6.489627, -57.221344, 8.305321, -1.004684, -0.171191, 1.725597

149503946.713799, 0.753808, 0.156076, 0.150578, 0.223331, -0.634810, 0.498814, 6.413453, -57.093941, 8.856244, -0.994810, -0.170919, 1.727066

149503946.714794, 0.771523, 0.252898, -0.103542, 0.148888, -0.805125, 0.358523, 6.352514, -56.992016, 9.296983, -0.989978, -0.170421, 1.725368

149503946.715860, 0.847576, 0.103236, -0.269086, 0.148888, -0.805125, 0.358523, 6.242153, -56.890068, 9.976110, -0.983946, -0.172223, 1.724250

149503946.716849, 1.054659, -0.140194, -0.252287, 0.148888, -0.805125, 0.483226, 6.153865, -56.808510, 10.519411, -0.974601, -0.174692, 1.723310

149503946.717912, 1.152703, -0.365603, -0.118508, 0.119110, -0.743192, 0.483226, 6.083234, -56.743263, 10.954052, -0.963369, -0.177015, 1.723757

149503946.718945, 1.147816, -0.591928, 0.015577, 0.119110, -0.743192, 0.483226, 6.149948, -56.548210, 11.698273, -0.953231, -0.179419, 1.726793

149503946.719946, 1.258077, -0.696997, 0.084299, 0.178665, -0.743192, 0.576754, 6.203319, -56.392166, 12.293650, -0.941148, -0.182909, 1.732704

149503946.721034, 1.044580, -0.732427, 0.135612, 0.178665, -0.743192, 0.576754, 6.246015, -56.267334, 12.769951, -0.930740, -0.186474, 1.739679

149503946.722037, 0.811534, -0.618196, 0.153938, 0.193554, -0.696743, 0.576754, 6.280172, -56.167465, 13.150991, -0.922825, -0.189397, 1.745784

149503946.723033, 0.651182, -0.421497, 0.086437, 0.193554, -0.696743, 0.576754, 6.307498, -56.005939, 13.782360, -0.916329, -0.191644, 1.749847

149503946.724093, 0.586736, -0.335976, -0.030238, 0.208443, -0.727709, 0.498814, 6.329359, -55.876720, 14.287455, -0.911755, -0.194902, 1.755006

149503946.725107, 0.568716, -0.353691, -0.091019, 0.208443, -0.727709, 0.498814, 6.346848, -55.773342, 14.691530, -0.907661, -0.198592, 1.759834

149503946.726147, 0.711353, -0.454178, -0.105069, 0.178665, -0.789642, 0.529990, 6.484056, -55.547783, 15.271355, -0.902458, -0.202045, 1.763115

149503946.727170, 0.892780, -0.635300, -0.111788, 0.178665, -0.789642, 0.529990, 6.593824, -55.367336, 15.735214, -0.895947, -0.206565, 1.767684

149503946.728226, 0.915687, -0.663705, -0.081551, 0.223331, -0.712226, 0.685870, 6.681638, -55.222980, 16.106302, -0.885657, -0.211873, 1.772171

149503946.729227, 0.946536, -0.426078, -0.076358, 0.223331, -0.712226, 0.685870, 6.834034, -54.985046, 16.706385, -0.875347, -0.215334, 1.774458

149503946.730268, 0.890642, 0.014355, -0.206472, 0.238220, -0.619327, 0.732634, 6.955951, -54.794697, 17.186449, -0.862485, -0.217478, 1.772112

149503946.731319, 0.890031, 0.470061, -0.361632, 0.238220, -0.619327, 0.732634, 7.053485, -54.642418, 17.570501, -0.848782, -0.217693, 1.765078

149503946.732314, 0.839023, 0.714101, -0.436463, 0.193554, -0.743192, 0.592342, 7.172585, -54.398148, 18.180956, -0.839814, -0.215909, 1.756714

149503946.733361, 0.702190, 0.613614, -0.358578, 0.193554, -0.743192, 0.592342, 7.267864, -54.202728, 18.669319, -0.832211, -0.214119, 1.749467

149503946.734404, 0.684169, 0.289856, -0.183870, 0.163776, -0.774159, 0.545578, 7.344088, -54.046394, 19.060009, -0.826956, -0.212597, 1.745175

149503946.735417, 0.729679, -0.105680, -0.050091, 0.163776, -0.774159, 0.545578, 7.405067, -53.921326, 19.372561, -0.822401, -0.212800, 1.744946

149503946.736470, 0.850324, -0.449291, 0.058643, 0.178665, -0.727709, 0.654694, 7.556532, -53.678417, 20.019110, -0.814743, -0.214864, 1.747378

149503946.737471, 0.935540, -0.635300, 0.148135, 0.178665, -0.727709, 0.654694, 7.677704, -53.484089, 20.536350, -0.807223, -0.217392, 1.751494

149503946.738564, 1.028086, -0.631635, 0.156382, 0.178665, -0.681260, 0.639106, 7.774642, -53.328625, 20.950142, -0.797727, -0.220310, 1.756280

149503946.739526, 1.094671, -0.655153, 0.144164, 0.178665, -0.681260, 0.639106, 7.831656, -53.122623, 21.537739, -0.788983, -0.223027, 1.760335

149503946.740571, 1.097419, -0.814283, 0.179594, 0.223331, -0.634810, 0.654694, 7.877266, -52.957821, 22.007816, -0.779012, -0.227974, 1.768154

149503946.741632, 1.076345, -0.957837, 0.229074, 0.223331, -0.634810, 0.654694, 7.913755, -52.825977, 22.383879, -0.769678, -0.233670, 1.777410

149503946.742642, 1.056797, -0.895528, 0.211054, 0.238220, -0.572877, 0.732634, 8.086700, -52.516422, 23.057913, -0.758941, -0.239000, 1.784587

149503946.743685, 1.049161, -0.737620, 0.116370, 0.238220, -0.572877, 0.732634, 8.225057, -52.268780, 23.597139, -0.747805, -0.243952, 1.789970

149503946.744710, 1.041525, -0.547030, 0.064141, 0.282887, -0.572877, 0.794985, 8.335742, -52.070663, 24.028521, -0.735945, -0.248324, 1.794033

149503946.745718, 1.102001, -0.271835, 0.021991, 0.282887, -0.572877, 0.794985, 8.424290, -51.912170, 24.373627, -0.723340, -0.250852, 1.795728

149503946.746762, 1.071763, -0.065057, -0.029016, 0.282887, -0.572877, 0.794985, 8.556737, -51.540478, 24.999571, -0.710466, -0.252166, 1.795654

149503946.747802, 1.093143, -0.021075, -0.020769, 0.238220, -0.603844, 0.717046, 8.662695, -51.243126, 25.500326, -0.699096, -0.252400, 1.795068

149503946.748799, 1.090700, -0.107818, -0.019853, 0.238220, -0.603844, 0.717046, 8.747461, -51.005241, 25.900930, -0.688591, -0.253260, 1.795096

149503946.749850, 1.012815, -0.149051, -0.051618, 0.312664, -0.526428, 0.779397, 8.815274, -50.631264, 26.547949, -0.676401, -0.256103, 1.796643

149503946.750887, 0.927293, -0.030238, -0.153938, 0.312664, -0.526428, 0.779397, 8.869525, -50.332081, 27.065563, -0.665037, -0.258577, 1.796631

149503946.751934, 0.862847, 0.149662, -0.258701, 0.267998, -0.588361, 0.763810, 8.912926, -50.092735, 27.479654, -0.655210, -0.259243, 1.793625

149503946.752938, 0.831082, 0.243124, -0.254731, 0.267998, -0.588361, 0.763810, 8.968183, -49.656361, 28.067492, -0.646135, -0.259096, 1.790398

149503946.753983, 0.844521, 0.216246, -0.179900, 0.193554, -0.650293, 0.701458, 9.012388, -49.307259, 28.537762, -0.638726, -0.257131, 1.785496

149503946.755025, 0.862236, 0.021686, -0.074220, 0.193554, -0.650293, 0.701458, 9.047752, -49.027977, 28.913979, -0.631865, -0.256147, 1.782872

149503946.756061, 0.933402, -0.246790, 0.075747, 0.223331, -0.634810, 0.732634, 9.117117, -48.661697, 29.518164, -0.624579, -0.257105, 1.784536

149503946.757077, 0.937067, -0.430049, 0.240375, 0.223331, -0.634810, 0.732634, 9.172608, -48.368671, 30.001511, -0.618213, -0.258558, 1.788690

149503946.758078, 0.939511, -0.444099, 0.277638, 0.312664, -0.433529, 0.794985, 9.217001, -48.134251, 30.388189, -0.607867, -0.261981, 1.794602

149503946.759138, 0.901943, -0.305433, 0.137750, 0.312664, -0.433529, 0.794985, 9.252516, -47.946716, 30.697533, -0.597111, -0.265153, 1.798647

149503946.760174, 0.829860, -0.104763, -0.043677, 0.297775, -0.495461, 0.810573, 9.239855, -47.592606, 31.271542, -0.587769, -0.267040, 1.799631

149503946.761172, 0.791681, -0.010996, -0.110261, 0.297775, -0.495461, 0.810573, 9.229726, -47.309319, 31.730749, -0.579004, -0.268445, 1.799651

149503946.762208, 0.706160, -0.067501, -0.068722, 0.253109, -0.510945, 0.779397, 9.221622, -47.082687, 32.098114, -0.571801, -0.269334, 1.799282

149503946.763265, 0.675312, -0.178067, -0.006109, 0.253109, -0.510945, 0.779397, 9.338358, -46.676891, 32.555275, -0.565230, -0.270841, 1.800173

149503946.764260, 0.715934, -0.220828, -0.002138, 0.238220, -0.495461, 0.857337, 9.431746, -46.352257, 32.921005, -0.557701, -0.272014, 1.799191

149503946.765306, 0.687529, -0.162490, -0.022602, 0.238220, -0.495461, 0.857337, 9.506457, -46.092548, 33.213589, -0.550127, -0.272861, 1.797767

149503946.766358, 0.686307, -0.042761, -0.021991, 0.342442, -0.433529, 0.904101, 9.504617, -45.741924, 33.657570, -0.540995, -0.274447, 1.798587

149503946.767352, 0.729679, 0.151189, -0.027794, 0.342442, -0.433529, 0.904101, 9.503144, -45.461426, 34.012756, -0.531723, -0.274378, 1.798446

149503946.768392, 0.779464, 0.325591, -0.113621, 0.267998, -0.449012, 0.748222, 9.501966, -45.237026, 34.296906, -0.523187, -0.272576, 1.796976

149503946.769437, 0.840856, 0.314901, -0.210749, 0.267998, -0.449012, 0.748222, 9.501024, -44.935059, 34.524223, -0.513933, -0.271371, 1.794812

149503946.770491, 0.865596, 0.142637, -0.218995, 0.253109, -0.495461, 0.748222, 9.541343, -44.693485, 34.985966, -0.505655, -0.271313, 1.793410

149503946.771475, 0.881479, -0.058032, -0.112094, 0.253109, -0.495461, 0.748222, 9.573598, -44.500225, 35.355358, -0.498544, -0.272461, 1.794268

149503946.772513, 0.805731, -0.145691, -0.037874, 0.282887, -0.418046, 0.872925, 9.599401, -44.345615, 35.650875, -0.489417, -0.274193, 1.794333

149503946.773550, 0.766636, -0.107818, -0.046120, 0.282887, -0.418046, 0.872925, 9.681654, -43.915806, 36.097202, -0.480800, -0.275588, 1.794201

149503946.774610, 0.865901, -0.010996, -0.035430, 0.253109, -0.418046, 0.872925, 9.747456, -43.571960, 36.454266, -0.471030, -0.275478, 1.792513

149503946.775612, 0.994489, 0.104458, -0.048564, 0.253109, -0.418046, 0.872925, 9.800097, -43.296883, 36.739918, -0.460510, -0.274391, 1.790261

149503946.776655, 1.053132, 0.177456, -0.047342, 0.253109, -0.418046, 0.872925, 9.760065, -42.852329, 37.318298, -0.449114, -0.272604, 1.787893

149503946.777668, 1.127352, 0.208000, 0.011301, 0.238220, -0.387079, 0.779397, 9.728040, -42.496689, 37.781002, -0.437937, -0.270580, 1.786949

149503946.778706, 1.058019, 0.165239, 0.040317, 0.238220, -0.387079, 0.779397, 9.702419, -42.212173, 38.151165, -0.427540, -0.268815, 1.786646

149503946.779720, 0.887282, 0.137445, 0.033598, 0.327553, -0.247731, 0.826161, 9.620314, -41.658031, 38.680534, -0.415902, -0.269232, 1.787850

149503946.780774, 0.767858, 0.258091, -0.072693, 0.327553, -0.247731, 0.826161, 9.554629, -41.214718, 39.104031, -0.404952, -0.268875, 1.787670

149503946.781810, 0.740063, 0.330173, -0.255342, 0.267998, -0.247731, 0.810573, 9.502082, -40.860069, 39.442829, -0.394264, -0.267546, 1.783768

149503946.782850, 0.705244, 0.274278, -0.379958, 0.267998, -0.247731, 0.810573, 9.460044, -40.576347, 39.713867, -0.383863, -0.267199, 1.779077

149503946.783850, 0.652404, 0.190285, -0.432187, 0.267998, -0.371596, 0.872925, 9.446950, -40.186108, 40.117287, -0.376572, -0.267209, 1.774930

149503946.784894, 0.615447, 0.212276, -0.383318, 0.267998, -0.371596, 0.872925, 9.436475, -39.873913, 40.440025, -0.369569, -0.266792, 1.771194

149503946.785903, 0.595594, 0.343306, -0.225104, 0.238220, -0.418046, 0.919689, 9.428095, -39.624157, 40.698215, -0.363924, -0.263694, 1.766981

149503946.786943, 0.609949, 0.417832, -0.093462, 0.238220, -0.418046, 0.919689, 9.400854, -39.199863, 41.091358, -0.358315, -0.259384, 1.763947

149503946.788013, 0.681726, 0.364992, -0.048869, 0.238220, -0.309663, 0.794985, 9.379062, -38.860428, 41.405872, -0.350947, -0.256241, 1.762966

149503946.789034, 0.781907, 0.251676, -0.043371, 0.238220, -0.309663, 0.794985, 9.361628, -38.588882, 41.657486, -0.343186, -0.254354, 1.762689

149503946.790036, 0.795957, 0.073915, -0.026573, 0.208443, -0.309663, 0.763810, 9.286071, -38.126747, 42.068691, -0.336086, -0.253630, 1.762459

149503946.791089, 0.748004, -0.140499, -0.027794, 0.208443, -0.309663, 0.763810, 9.225626, -37.757038, 42.397655, -0.329404, -0.254989, 1.763144

149503946.792101, 0.675312, -0.304516, -0.015882, 0.238220, -0.309663, 0.826161, 9.177270, -37.461269, 42.660828, -0.323500, -0.258092, 1.764996

149503946.793141, 0.678671, -0.415388, 0.051007, 0.238220, -0.309663, 0.826161, 9.220731, -37.081799, 42.987984, -0.317775, -0.262077, 1.767970

149503946.794164, 0.694859, -0.610865, 0.140499, 0.312664, -0.247731, 0.826161, 9.255499, -36.778221, 43.249710, -0.311015, -0.269145, 1.774888

149503946.795184, 0.764803, -0.836885, 0.255647, 0.312664, -0.247731, 0.826161, 9.283314, -36.535362, 43.459091, -0.304249, -0.277886, 1.783571

149503946.796224, 0.861931, -0.928515, 0.264505, 0.342442, -0.139349, 0.935277, 9.305566, -36.341072, 43.626595, -0.293896, -0.287465, 1.790146

149503946.797272, 0.925155, -0.766636, 0.067195, 0.342442, -0.139349, 0.935277, 9.549267, -35.838703, 43.923866, -0.282352, -0.295967, 1.794001

149503946.798270, 0.985631, -0.410807, -0.214108, 0.267998, -0.263214, 0.997629, 9.744228, -35.436806, 44.161682, -0.271909, -0.299577, 1.791651

149503946.799308, 0.921185, -0.062614, -0.315817, 0.267998, -0.263214, 0.997629, 9.900197, -35.115288, 44.351936, -0.261319, -0.300132, 1.787180

149503946.800366, 0.748004, 0.237627, -0.215330, 0.297775, -0.201281, 0.904101, 10.066045, -34.653992, 44.760704, -0.251852, -0.298523, 1.784892

149503946.801365, 0.641714, 0.527788, -0.222660, 0.297775, -0.201281, 0.904101, 10.198723, -34.284958, 45.087719, -0.243874, -0.294289, 1.782074

149503946.802435, 0.559553, 0.549473, -0.296575, 0.238220, -0.278697, 0.794985, 10.304866, -33.989731, 45.349331, -0.238566, -0.289123, 1.778748

149503946.803455, 0.509462, 0.259618, -0.234267, 0.238220, -0.278697, 0.794985, 10.369244, -33.508648, 45.698563, -0.234605, -0.286952, 1.777228

149503946.804455, 0.525344, -0.082467, -0.111483, 0.238220, -0.278697, 0.794985, 10.420746, -33.123783, 45.977947, -0.231264, -0.287846, 1.777967

149503946.805495, 0.532980, -0.417221, -0.033292, 0.238220, -0.216764, 0.857337, 10.461947, -32.815891, 46.201454, -0.226337, -0.291567, 1.778007

149503946.806553, 0.534202, -0.664927, 0.043371, 0.238220, -0.216764, 0.857337, 10.494908, -32.569576, 46.380260, -0.221815, -0.297612, 1.779489

149503946.807581, 0.514043, -0.693637, 0.136528, 0.223331, -0.185798, 0.966453, 10.521277, -32.372524, 46.523304, -0.216749, -0.302688, 1.779299

149503946.808609, 0.549168, -0.593456, 0.179289, 0.223331, -0.185798, 0.966453, 10.542373, -32.214886, 46.637741, -0.211496, -0.306590, 1.779304

149503946.809620, 0.550390, -0.460898, 0.156687, 0.267998, -0.154832, 0.935277, 10.559249, -32.088772, 46.729290, -0.205856, -0.310135, 1.780844

149503946.810658, 0.540616, -0.243735, 0.076969, 0.267998, -0.154832, 0.935277, 10.798650, -31.620535, 46.989120, -0.199904, -0.311733, 1.781011

149503946.811703, 0.530536, -0.073915, 0.043371, 0.297775, -0.077416, 0.888513, 10.990170, -31.245945, 47.196987, -0.192403, -0.312614, 1.781322

149503946.812703, 0.484722, -0.036041, -0.014355, 0.297775, -0.077416, 0.888513, 11.143387, -30.946274, 47.363281, -0.185526, -0.313196, 1.780908

149503946.813739, 0.419359, -0.076053, -0.125533, 0.312664, -0.092899, 0.857337, 11.307033, -30.522863, 47.496315, -0.179347, -0.314849, 1.780664

149503946.814772, 0.374766, -0.188757, -0.124617, 0.312664, -0.092899, 0.857337, 11.437949, -30.184135, 47.602741, -0.173820, -0.317583, 1.780631

149503946.815817, 0.317039, -0.322842, -0.082467, 0.297775, -0.139349, 0.857337, 11.542683, -29.913153, 47.687881, -0.170227, -0.321234, 1.781425

149503946.816874, 0.231518, -0.517403, -0.014661, 0.297775, -0.139349, 0.857337, 11.790760, -29.635141, 47.802643, -0.167897, -0.326723, 1.783161

149503946.817873, 0.243430, -0.706771, 0.113316, 0.312664, -0.154832, 0.841749, 11.989223, -29.412733, 47.894451, -0.166544, -0.333845, 1.787688

149503946.818910, 0.254425, -0.798095, 0.237627, 0.312664, -0.154832, 0.841749, 12.147992, -29.234806, 47.967899, -0.165564, -0.341785, 1.793634

149503946.819943, 0.177456, -0.762665, 0.228158, 0.357330, -0.046450, 0.935277, 12.275008, -29.092464, 48.026657, -0.162732, -0.349475, 1.797497

149503946.820951, 0.128893, -0.649350, 0.092241, 0.357330, -0.046450, 0.935277, 12.684666, -28.917368, 48.120312, -0.159914, -0.355979, 1.799346

149503946.821998, 0.078191, -0.419359, -0.011912, 0.387108, -0.061933, 0.950865, 13.012392, -28.777290, 48.195236, -0.157426, -0.360816, 1.800557

149503946.823051, -0.016493, -0.074831, -0.087048, 0.387108, -0.061933, 0.950865, 13.274573, -28.665228, 48.255177, -0.155462, -0.362202, 1.800180

149503946.824059, -0.094379, 0.329562, -0.242514, 0.312664, -0.139349, 0.950865, 13.463781, -28.555170, 48.326450, -0.155077, -0.358408, 1.795562

149503946.825097, -0.050091, 0.673784, -0.381791, 0.312664, -0.139349, 0.950865, 13.615149, -28.467123, 48.383469, -0.153552, -0.351366, 1.788788

149503946.826119, 0.035736, 0.790154, -0.358883, 0.238220, -0.263214, 0.841749, 13.736242, -28.396687, 48.429085, -0.154388, -0.342153, 1.781045

149503946.827128, 0.088881, 0.554971, -0.175013, 0.238220, -0.263214, 0.841749, 13.648290, -28.340336, 48.465576, -0.155524, -0.335260, 1.775955

149503946.828167, 0.124311, 0.195171, 0.009163, 0.253109, -0.201281, 0.841749, 13.577928, -28.295256, 48.494770, -0.155740, -0.332208, 1.774170

149503946.829212, 0.171653, -0.085827, 0.074831, 0.253109, -0.201281, 0.841749, 13.521638, -28.259192, 48.518124, -0.155845, -0.331949, 1.773668

149503946.830256, 0.211665, -0.376598, 0.145386, 0.297775, -0.216764, 0.810573, 13.640897, -28.271156, 48.536808, -0.156491, -0.335842, 1.778637

149503946.831294, 0.279471, -0.743728, 0.323759, 0.297775, -0.216764, 0.810573, 13.736304, -28.280729, 48.551754, -0.157307, -0.343033, 1.785926

149503946.832304, 0.309403, -1.088867, 0.474337, 0.297775, -0.216764, 0.763810, 13.812630, -28.288387, 48.563713, -0.158900, -0.353473, 1.796673

149503946.833347, 0.313068, -1.339628, 0.550390, 0.357330, -0.201281, 0.763810, 13.873691, -28.294514, 48.573280, -0.160330, -0.367826, 1.811738

149503946.834361, 0.509156, -1.197296, 0.669508, 0.357330, -0.201281, 0.763810, 14.168976, -28.095333, 48.557610, -0.160341, -0.379927, 1.827199

149503946.835382, 0.401338, 0.200058, 0.615752, 0.506218, 0.310327, 1.044393, 14.405204, -27.935989, 48.545074, -0.149896, -0.378790, 1.830222

149503946.836436, -0.351858, 0.859182, 0.178984, 0.506218, 0.310327, 1.044393, 14.594186, -27.808514, 48.535046, -0.145232, -0.371569, 1.827465

149503946.837468, -0.414472, 0.926377, 0.198531, 0.387108, -0.092899, 0.919689, 14.457863, -27.788166, 48.550346, -0.148768, -0.362498, 1.828483

149503946.838473, -0.444710, 0.991129, 0.291077, 0.387108, -0.092899, 0.919689, 14.348804, -27.771887, 48.562588, -0.152694, -0.353089, 1.830376

149503946.839517, -0.349720, 0.996321, 0.290772, 0.312664, -0.139349, 0.888513, 14.261558, -27.758863, 48.572380, -0.156817, -0.342194, 1.830312

149503946.840557, -0.258091, 0.905608, 0.321926, 0.312664, -0.139349, 0.888513, 13.760497, -27.911711, 48.580212, -0.160051, -0.332408, 1.831127

149503946.841567, -0.106596, 0.821919, 0.320399, 0.297775, -0.185798, 0.810573, 13.359649, -28.033989, 48.586479, -0.163016, -0.324134, 1.834277

149503946.842604, 0.293826, 0.675922, 0.316428, 0.297775, -0.185798, 0.810573, 13.038970, -28.131811, 48.591492, -0.161936, -0.317276, 1.837906

149503946.843650, 0.484111, 0.608422, 0.346971, 0.267998, -0.154832, 0.935277, 12.782427, -28.210070, 48.595501, -0.157773, -0.309708, 1.837195

149503946.844648, 0.443183, 0.531758, 0.290772, 0.267998, -0.154832, 0.935277, 12.248610, -28.211452, 48.761978, -0.154158, -0.303433, 1.836514

149503946.845694, 0.494495, 0.430049, 0.218079, 0.253109, -0.139349, 0.919689, 11.821558, -28.212559, 48.895161, -0.149440, -0.297981, 1.835121

149503946.846727, 0.566577, 0.392481, 0.169515, 0.253109, -0.139349, 0.919689, 11.479916, -28.213444, 49.001705, -0.144025, -0.293145, 1.833656

149503946.847740, 0.556193, 0.398895, 0.161268, 0.282887, -0.092899, 0.935277, 11.083384, -28.010069, 49.110264, -0.137916, -0.289016, 1.833141

149503946.848783, 0.463952, 0.442266, 0.188757, 0.282887, -0.092899, 0.935277, 10.766158, -27.847368, 49.197113, -0.132782, -0.284359, 1.833224

149503946.849821, 0.250455, 0.528398, 0.210443, 0.208443, -0.092899, 0.919689, 10.512378, -27.717209, 49.266590, -0.129876, -0.277565, 1.830407

149503946.850839, 0.102320, 0.541532, 0.196699, 0.208443, -0.092899, 0.919689, 10.021844, -27.572264, 49.392147, -0.128525, -0.270891, 1.827933

149503946.851884, 0.012217, 0.495106, 0.121562, 0.223331, -0.108382, 0.919689, 9.629417, -27.456308, 49.492592, -0.128299, -0.265032, 1.826083

149503946.852928, -0.030543, 0.463647, 0.050091, 0.223331, -0.108382, 0.919689, 9.315476, -27.363544, 49.572948, -0.128340, -0.259708, 1.823872

149503946.853933, -0.032376, 0.439212, 0.017715, 0.223331, -0.108382, 0.904101, 8.961641, -27.248516, 49.637234, -0.128366, -0.255019, 1.821976

149503946.854977, 0.079107, 0.404087, 0.024435, 0.223331, -0.108382, 0.904101, 8.678574, -27.156494, 49.688660, -0.127297, -0.250600, 1.820503

149503946.856023, 0.236710, 0.396146, 0.016799, 0.253109, -0.139349, 0.919689, 8.452119, -27.082876, 49.729801, -0.125237, -0.246862, 1.821000

149503946.857028, 0.385151, 0.384540, 0.040623, 0.253109, -0.139349, 0.919689, 8.270955, -27.023983, 49.762714, -0.121914, -0.243443, 1.821955

149503946.858074, 0.613309, 0.363770, 0.103542, 0.238220, -0.108382, 0.950865, 7.879588, -26.834011, 49.882339, -0.115609, -0.239625, 1.822288

149503946.859122, 0.802372, 0.353996, 0.145386, 0.238220, -0.108382, 0.950865, 7.566494, -26.682034, 49.978043, -0.107588, -0.235933, 1.823420

149503946.860119, 0.809396, 0.380874, 0.154549, 0.253109, -0.061933, 0.904101, 7.316020, -26.560452, 50.054604, -0.099152, -0.232793, 1.825315

149503946.861162, 0.799012, 0.402560, 0.162490, 0.253109, -0.061933, 0.904101, 6.992422, -26.177471, 50.325768, -0.090647, -0.229320, 1.827717

149503946.862204, 0.664621, 0.304211, 0.170431, 0.253109, -0.061933, 0.904101, 6.733543, -25.871086, 50.542698, -0.083726, -0.226925, 1.830597

149503946.863223, 0.353996, 0.226631, 0.135307, 0.238220, -0.015483, 0.919689, 6.526441, -25.625978, 50.716244, -0.079126, -0.225091, 1.831747

149503946.864262, 0.192117, 0.223577, 0.085827, 0.238220, -0.015483, 0.919689, 6.258077, -25.348259, 50.855080, -0.076082, -0.223313, 1.832672

149503946.865281, 0.128282, 0.228158, 0.014966, 0.223331, -0.061933, 0.966453, 6.043386, -25.126083, 50.966148, -0.074554, -0.221096, 1.832696

149503946.866343, 0.057727, 0.229991, -0.037874, 0.223331, -0.061933, 0.966453, 5.871633, -24.948343, 51.055004, -0.073614, -0.218848, 1.832359

149503946.867328, -0.025351, 0.253815, -0.072082, 0.193554, -0.077416, 0.935277, 5.734231, -24.806152, 51.126087, -0.073842, -0.216146, 1.831099

149503946.868398, 0.036957, 0.218079, 0.010996, 0.193554, -0.077416, 0.935277, 5.501091, -24.794439, 51.252926, -0.073618, -0.213601, 1.830943

149503946.869417, -0.000611, 0.199142, 0.046426, 0.178665, -0.077416, 0.966453, 5.314579, -24.785069, 51.354397, -0.073804, -0.210953, 1.830278

149503946.870451, -0.059254, 0.211970, 0.008858, 0.178665, -0.077416, 0.966453, 5.165369, -24.777573, 51.435574, -0.074502, -0.208228, 1.829385

149503946.871487, -0.078496, 0.223577, 0.014050, 0.193554, -0.030966, 0.935277, 5.004929, -24.689943, 51.430542, -0.074464, -0.205876, 1.829028

149503946.872506, -0.082467, 0.223577, 0.030849, 0.193554, -0.030966, 0.935277, 4.876576, -24.619841, 51.426517, -0.074490, -0.203592, 1.828967

149503946.873514, -0.082467, 0.193033, 0.076969, 0.163776, -0.030966, 0.919689, 4.773894, -24.563757, 51.423298, -0.074596, -0.201111, 1.828271

149503946.874540, -0.094990, 0.159130, 0.093462, 0.163776, -0.030966, 0.919689, 4.609603, -24.661747, 51.420723, -0.074882, -0.198970, 1.827914

149503946.877180, 0.063225, 0.160047, -0.072388, 0.148888, -0.061933, 0.950865, 4.478171, -24.740139, 51.418663, -0.072583, -0.194105, 1.824020

149503946.877958, 0.260229, 0.189674, -0.160352, 0.119110, -0.061933, 0.966453, 4.393561, -24.639587, 51.440338, -0.070061, -0.191328, 1.819548

149503946.878719, 0.442266, 0.219911, -0.233351, 0.119110, -0.061933, 0.966453, 4.325873, -24.559147, 51.457680, -0.066187, -0.188437, 1.814708

149503946.879714, 0.503048, 0.201586, -0.187536, 0.163776, -0.015483, 0.950865, 4.271723, -24.494795, 51.471554, -0.059906, -0.186256, 1.811673

149503946.880758, 0.394619, 0.183565, -0.151189, 0.163776, -0.015483, 0.950865, 4.228403, -24.443314, 51.482651, -0.054676, -0.184171, 1.809046

149503946.881762, 0.243735, 0.205862, -0.147524, 0.178665, -0.077416, 0.950865, 4.091064, -24.300087, 51.538177, -0.052521, -0.182260, 1.808330

149503946.882806, 0.251371, 0.241903, -0.161268, 0.178665, -0.077416, 0.950865, 3.981194, -24.185505, 51.582600, -0.050196, -0.179946, 1.807544

149503946.883856, 0.372628, 0.262672, -0.164628, 0.178665, -0.015483, 0.966453, 3.893298, -24.093840, 51.618137, -0.045348, -0.177382, 1.805701

149503946.884861, 0.446237, 0.270308, -0.163712, 0.178665, -0.015483, 0.966453, 3.679226, -23.918467, 51.693214, -0.040057, -0.174895, 1.804212

149503946.885903, 0.332616, 0.269086, -0.137445, 0.133999, -0.015483, 0.982041, 3.507969, -23.778168, 51.753277, -0.035882, -0.171433, 1.801087

149503946.886908, 0.165239, 0.258091, -0.152716, 0.133999, -0.015483, 0.982041, 3.370963, -23.665930, 51.801327, -0.033555, -0.168241, 1.798078

149503946.887962, 0.007330, 0.216246, -0.119424, 0.178665, -0.015483, 0.982041, 3.302431, -23.514915, 51.863091, -0.032899, -0.166279, 1.797459

149503946.889005, -0.195171, 0.266948, -0.149357, 0.178665, -0.015483, 0.982041, 3.247606, -23.394104, 51.912502, -0.034277, -0.163867, 1.796614

149503946.890020, -0.200364, 0.279471, -0.105985, 0.178665, -0.015483, 0.982041, 3.203745, -23.297455, 51.952030, -0.035703, -0.161440, 1.796326

149503946.891028, -0.200364, 0.259923, -0.057116, 0.089333, -0.061933, 0.982041, 3.004366, -23.342585, 51.983654, -0.038033, -0.157445, 1.792977

149503946.892071, -0.122784, 0.227242, -0.102320, 0.089333, -0.061933, 0.982041, 2.844863, -23.378687, 52.008953, -0.039531, -0.153801, 1.789370

149503946.893090, 0.144164, 0.172875, -0.181732, 0.104221, -0.092899, 0.935277, 2.717260, -23.407570, 52.029190, -0.038978, -0.151255, 1.786674

149503946.894146, 0.406225, 0.151800, -0.222966, 0.104221, -0.092899, 0.935277, 2.615178, -23.430676, 52.045380, -0.035607, -0.148935, 1.783650

149503946.895188, 0.421192, 0.263283, -0.288939, 0.178665, 0.000000, 0.982041, 2.512976, -23.265488, 52.104980, -0.030118, -0.146943, 1.782058

149503946.896207, 0.233961, 0.442572, -0.470061, 0.178665, 0.000000, 0.982041, 2.431215, -23.133337, 52.152660, -0.026447, -0.143296, 1.778799

149503946.897217, 0.145997, 0.493274, -0.543670, 0.119110, 0.000000, 0.982041, 2.365805, -23.027617, 52.190804, -0.023687, -0.138108, 1.772462

149503946.898262, 0.149357, 0.423940, -0.487470, 0.119110, 0.000000, 0.982041, 2.210796, -22.861406, 52.244644, -0.020983, -0.133534, 1.766833

149503946.899296, 0.102625, 0.361632, -0.400422, 0.133999, 0.000000, 0.982041, 2.086788, -22.728439, 52.287716, -0.018976, -0.129990, 1.763079

149503946.900306, -0.036957, 0.310320, -0.280387, 0.133999, 0.000000, 0.982041, 1.987583, -22.622065, 52.322174, -0.018594, -0.127079, 1.760818

149503946.901348, -0.240375, 0.321010, -0.167072, 0.133999, 0.000000, 0.982041, 1.826072, -22.679823, 52.279766, -0.020449, -0.123997, 1.759791

149503946.902389, -0.458149, 0.452346, -0.156382, 0.133999, 0.000000, 0.982041, 1.696864, -22.726028, 52.245842, -0.024501, -0.119640, 1.758952

149503946.903401, -0.485332, 0.516181, -0.158214, 0.059555, -0.030966, 0.872925, 1.593498, -22.762993, 52.218700, -0.029289, -0.113531, 1.755394

149503946.904447, -0.300240, 0.744339, -0.116981, 0.059555, -0.030966, 0.872925, 1.510805, -22.792564, 52.196987, -0.032303, -0.105026, 1.752254

149503946.905484, 0.118813, 1.538770, -0.162796, 0.223331, -0.170315, 0.732634, 1.177678, -23.081528, 52.132973, -0.033070, -0.094370, 1.764750

149503946.906495, 1.109637, 3.247971, -0.166461, 0.223331, -0.170315, 0.732634, 0.911176, -23.312698, 52.081760, -0.023879, -0.067422, 1.776517

149503946.907539, 4.375322, 2.397952, 0.045509, -0.125042, 0.977530, 1.480855, 0.697975, -23.497635, 52.040791, 0.033231, -0.041672, 1.771175

149503946.908572, 0.122478, -0.924545, -0.200669, -0.125042, 0.977530, 1.480855, -0.047604, -22.849667, 52.171280, 0.045835, -0.050090, 1.763382

149503946.909580, -0.303905, -0.659124, -0.321010, 0.163776, 0.062065, 1.106744, -0.644068, -22.331293, 52.275673, 0.043326, -0.058373, 1.762272

149503946.910624, 0.461509, 0.455095, -0.129198, 0.163776, 0.062065, 1.106744, -1.121238, -21.916594, 52.359188, 0.048490, -0.055416, 1.763984

149503946.911657, -0.008247, 0.019242, 0.265421, 0.044666, 0.046549, 1.013217, -1.461902, -21.544018, 52.519295, 0.048210, -0.055123, 1.765907

149503946.912712, -0.055283, -0.031154, 0.189979, 0.044666, 0.046549, 1.013217, -1.734433, -21.245956, 52.647381, 0.047488, -0.055316, 1.767310

149503946.913710, 0.054062, 0.099571, 0.032987, -0.000000, 0.062065, 0.950865, -1.952457, -21.007507, 52.749851, 0.048412, -0.053274, 1.765334

149503946.914784, 0.051313, -0.054062, 0.029322, -0.000000, 0.062065, 0.950865, -2.147413, -20.755524, 52.808502, 0.049329, -0.052810, 1.763487

149503946.915803, -0.025962, -0.080329, 0.009163, 0.014889, 0.015516, 0.950865, -2.303379, -20.553936, 52.855423, 0.048424, -0.052857, 1.762595

149503946.916813, 0.028405, 0.045509, 0.014355, 0.014889, 0.015516, 0.950865, -2.428151, -20.392666, 52.892960, 0.048069, -0.051658, 1.761970

149503946.917834, 0.039401, 0.016493, 0.001527, 0.014889, 0.000000, 0.966453, -2.527968, -20.263651, 52.922989, 0.047510, -0.050755, 1.761456

149503946.918853, 0.003665, -0.034819, 0.013134, 0.014889, 0.000000, 0.966453, -2.607822, -20.262480, 52.993660, 0.046598, -0.050391, 1.761122

149503946.919899, 0.018631, -0.037263, 0.010079, 0.014889, 0.000000, 0.966453, -2.671705, -20.261543, 53.050198, 0.045859, -0.050069, 1.760827

149503946.920967, 0.038790, -0.003360, 0.002138, 0.014889, 0.000000, 0.950865, -2.722812, -20.260794, 53.095428, 0.045351, -0.049410, 1.760536

149503946.921945, 0.019548, -0.007025, 0.001527, 0.014889, 0.000000, 0.950865, -2.763697, -20.239786, 53.014992, 0.044635, -0.048796, 1.760282

149503946.922990, 0.013744, -0.012828, 0.004887, 0.044666, 0.015516, 0.997629, -2.796406, -20.222979, 52.950642, 0.044190, -0.048863, 1.761335

149503946.924050, 0.021686, -0.018631, 0.000305, 0.044666, 0.015516, 0.997629, -2.822572, -20.209534, 52.899162, 0.043841, -0.048988, 1.762342

149503946.925078, 0.018326, -0.018937, 0.007330, 0.029778, 0.015516, 0.950865, -2.843506, -20.178370, 52.881302, 0.043468, -0.048833, 1.762784

149503946.926069, 0.021380, -0.014966, 0.004276, 0.029778, 0.015516, 0.950865, -2.860252, -20.153439, 52.867016, 0.043128, -0.048635, 1.763206

149503946.927113, 0.019853, -0.021991, 0.003971, 0.029778, 0.015516, 0.982041, -2.873649, -20.133493, 52.855587, 0.042779, -0.048500, 1.763590

149503946.928145, 0.017104, -0.029932, 0.002443, 0.029778, 0.015516, 0.982041, -2.884367, -20.137945, 52.846443, 0.042409, -0.048444, 1.763955

149503946.929195, 0.014966, -0.023518, 0.001222, 0.044666, 0.000000, 0.982041, -2.892941, -20.141506, 52.839127, 0.041713, -0.048653, 1.765233

149503946.930192, 0.025962, -0.015882, 0.003665, 0.044666, 0.000000, 0.982041, -2.899801, -20.144356, 52.833275, 0.041129, -0.048771, 1.766518

149503946.931254, 0.025351, -0.021686, 0.004581, 0.014889, 0.000000, 0.966453, -2.905288, -20.146635, 52.828594, 0.040572, -0.048326, 1.766306

149503946.932257, 0.015882, -0.021686, 0.001527, 0.014889, 0.000000, 0.966453, -2.909678, -20.168867, 52.824848, 0.039920, -0.047876, 1.766066

149503946.933298, 0.018937, -0.014355, 0.001527, 0.044666, 0.000000, 0.950865, -2.913191, -20.186653, 52.821850, 0.039314, -0.048030, 1.767387

149503946.934354, 0.016188, -0.016493, -0.002443, 0.044666, 0.000000, 0.950865, -2.916000, -20.200882, 52.819454, 0.038696, -0.048203, 1.768640

149503946.935356, 0.020769, -0.017715, 0.001222, 0.029778, 0.000000, 0.966453, -2.959321, -20.171448, 52.864185, 0.038121, -0.048039, 1.769166

149503946.936401, 0.020769, -0.016799, 0.003665, 0.029778, 0.000000, 0.966453, -2.993977, -20.147900, 52.899967, 0.037565, -0.047878, 1.769746

149503946.937444, 0.016799, -0.017410, 0.000916, 0.014889, 0.000000, 0.966453, -3.021702, -20.129063, 52.928593, 0.036988, -0.047403, 1.769548

149503946.938445, 0.025351, -0.015882, 0.003054, 0.014889, 0.000000, 0.966453, -3.043882, -20.175217, 52.951496, 0.036499, -0.046916, 1.769389

149503946.939493, 0.024740, -0.014661, 0.007941, 0.044666, 0.015516, 0.966453, -3.061626, -20.212139, 52.969818, 0.036340, -0.047066, 1.770592

149503946.940495, 0.018021, -0.014050, 0.003054, 0.044666, 0.015516, 0.966453, -3.075821, -20.241678, 52.984474, 0.036110, -0.047199, 1.771727

149503946.941549, 0.021075, -0.014661, 0.004887, 0.029778, 0.000000, 0.950865, -3.087177, -20.265308, 52.996201, 0.035598, -0.047044, 1.772358

149503946.942591, 0.024435, -0.018631, 0.001833, 0.029778, 0.000000, 0.950865, -3.055190, -20.222988, 53.005581, 0.035131, -0.046930, 1.772924

149503946.943602, 0.015577, -0.013744, 0.001222, 0.029778, 0.015516, 0.982041, -3.029599, -20.189133, 53.013084, 0.034896, -0.046737, 1.773222

149503946.944656, 0.013134, -0.016493, 0.002138, 0.029778, 0.015516, 0.982041, -3.009127, -20.162048, 53.019089, 0.034646, -0.046582, 1.773511

149503946.945653, 0.019853, -0.013134, 0.001833, 0.014889, 0.000000, 0.966453, -3.013286, -20.181198, 52.930595, 0.034151, -0.046082, 1.773230

149503946.946719, 0.018326, -0.010079, 0.001222, 0.014889, 0.000000, 0.966453, -3.016613, -20.196518, 52.859802, 0.033663, -0.045569, 1.772949

149503946.947726, 0.014661, -0.013439, 0.002443, 0.014889, 0.000000, 0.966453, -3.019274, -20.208773, 52.803165, 0.033138, -0.045095, 1.772684

149503946.948768, 0.017410, -0.019548, -0.001527, 0.044666, 0.000000, 0.966453, -2.980331, -20.218576, 52.851154, 0.032655, -0.045335, 1.773859

149503946.949792, 0.018021, -0.015882, 0.004276, 0.044666, 0.000000, 0.966453, -2.949176, -20.226419, 52.889545, 0.032181, -0.045531, 1.775042

149503946.950846, 0.021075, -0.015577, 0.002749, 0.029778, 0.031033, 0.935277, -2.924252, -20.232695, 52.920258, 0.032417, -0.045418, 1.775092

149503946.951843, 0.014050, -0.015272, 0.000611, 0.029778, 0.031033, 0.935277, -2.945385, -20.176491, 52.898178, 0.032569, -0.045296, 1.775148

149503946.952879, 0.017715, -0.015577, 0.003054, 0.044666, 0.031033, 0.935277, -2.962292, -20.131527, 52.880516, 0.032761, -0.045503, 1.775968

149503946.953938, 0.019242, -0.012828, 0.003054, 0.044666, 0.031033, 0.935277, -2.975818, -20.095556, 52.866386, 0.032968, -0.045680, 1.776791

149503946.954936, 0.019548, -0.014661, 0.004887, 0.014889, 0.000000, 0.966453, -2.986638, -20.066780, 52.855083, 0.032503, -0.045214, 1.776468

149503946.955975, 0.017410, -0.014966, 0.004581, 0.014889, 0.000000, 0.966453, -2.995295, -20.064167, 52.892689, 0.032034, -0.044766, 1.776158

