Using settings file RTIMULib.ini
IMU Name: L3GD20 + LSM303DLHC
IMU Init Succeeded
Recommended Poll Interval: 10mS

Time, gyroX, gyroY, gyroZ, accelX, accelY, accelZ, magX, magY, magZ, phi, theta, psi

149504303.290581, 0.023213, -0.016799, 0.005192, 0.014889, 0.000000, 0.966453, -0.667593, -4.010742, 10.561973, 0.000000, -0.015404, 1.774910

149504303.291998, 0.028100, -0.015272, 0.004276, 0.014889, 0.015516, 0.966453, -1.201667, -7.219336, 19.011551, 0.000710, -0.015618, 1.774804

149504303.293406, 0.019853, -0.012523, 0.001833, 0.044666, 0.015516, 0.966453, -1.628927, -9.786211, 25.771214, 0.001310, -0.016392, 1.776129

149504303.294773, 0.021991, -0.014661, 0.003665, 0.044666, 0.015516, 0.966453, -1.909126, -11.839711, 31.155619, 0.001915, -0.017176, 1.777356

149504303.296179, 0.021380, -0.016799, 0.002443, 0.029778, 0.015516, 0.950865, -2.133285, -13.482512, 35.463142, 0.002500, -0.017687, 1.777784

149504303.297540, 0.024435, -0.017104, 0.001222, 0.029778, 0.000000, 0.966453, -2.333148, -14.796751, 38.932487, 0.002779, -0.018178, 1.778344

149504303.298905, 0.021991, -0.014050, 0.004581, 0.029778, 0.000000, 0.966453, -2.493039, -15.848143, 41.707962, 0.003020, -0.018620, 1.778932

149504303.300281, 0.017715, -0.015577, 0.002443, 0.044666, 0.015516, 0.950865, -2.620951, -16.689257, 43.928341, 0.003539, -0.019389, 1.780043

149504303.301675, 0.026573, -0.019242, 0.005498, 0.044666, 0.015516, 0.950865, -2.702745, -17.362148, 45.681320, 0.004169, -0.020197, 1.781149

149504303.303044, 0.020769, -0.015577, 0.004276, 0.044666, 0.000000, 0.966453, -2.768180, -17.900461, 47.083706, 0.004378, -0.020928, 1.782381

149504303.304446, 0.017410, -0.015272, 0.000305, 0.029778, 0.015516, 0.950865, -2.841064, -18.310703, 48.158966, 0.004857, -0.021344, 1.782620

149504303.305833, 0.021075, -0.015272, 0.002749, 0.029778, 0.015516, 0.950865, -2.899372, -18.638897, 49.019173, 0.005373, -0.021749, 1.782896

149504303.307232, 0.018021, -0.014355, 0.002443, 0.029778, 0.015516, 0.982041, -2.946018, -18.901451, 49.707340, 0.005828, -0.022116, 1.783125

149504303.308645, 0.016799, -0.012828, -0.000305, 0.014889, 0.015516, 0.982041, -2.983335, -19.274761, 50.327847, 0.006263, -0.022157, 1.782559

149504303.310018, 0.020769, -0.016493, 0.000305, 0.014889, 0.015516, 0.982041, -3.013188, -19.573408, 50.824249, 0.006735, -0.022242, 1.781993

149504303.311447, 0.025351, -0.015882, -0.000305, 0.014889, 0.000000, 0.966453, -2.995998, -19.608244, 51.244698, 0.006957, -0.022326, 1.781578

149504303.312808, 0.025351, -0.016188, 0.003360, 0.029778, 0.015516, 0.966453, -2.982246, -19.636112, 51.581055, 0.007476, -0.022711, 1.781791

149504303.314185, 0.019853, -0.012217, 0.001527, 0.029778, 0.015516, 0.966453, -2.991781, -19.719631, 51.826817, 0.007916, -0.023037, 1.781973

149504303.315543, 0.020159, -0.010385, 0.003054, 0.044666, 0.015516, 0.950865, -2.999409, -19.786448, 52.023426, 0.008362, -0.023650, 1.782930

149504303.316928, 0.016799, -0.014050, 0.002138, 0.044666, 0.015516, 0.966453, -3.005511, -19.839901, 52.180714, 0.008753, -0.024288, 1.783822

149504303.318291, 0.021380, -0.016493, 0.000305, 0.044666, 0.015516, 0.966453, -3.010393, -19.841846, 52.306545, 0.009193, -0.024943, 1.784680

149504303.319690, 0.018326, -0.014355, -0.000611, 0.029778, 0.015516, 0.950865, -3.014298, -19.843403, 52.407207, 0.009587, -0.025267, 1.784805

149504303.321071, 0.022297, -0.012828, 0.002749, 0.014889, 0.015516, 0.997629, -3.017423, -19.885464, 52.487740, 0.010011, -0.025235, 1.784187

149504303.322467, 0.018937, -0.016188, 0.003665, 0.014889, 0.015516, 0.997629, -3.019922, -19.919113, 52.552166, 0.010383, -0.025253, 1.783591

149504303.323889, 0.020769, -0.012217, 0.004276, 0.029778, 0.000000, 0.950865, -3.021922, -19.946033, 52.603706, 0.010464, -0.025547, 1.783989

149504303.325282, 0.019242, -0.014355, 0.003971, 0.029778, 0.000000, 0.950865, -3.023521, -20.008387, 52.621613, 0.010517, -0.025860, 1.784362

149504303.326676, 0.017104, -0.017715, 0.002138, 0.014889, 0.031033, 0.935277, -3.024801, -20.058268, 52.635937, 0.011207, -0.025912, 1.783613

149504303.328041, 0.016799, -0.016188, 0.000611, 0.029778, 0.015516, 0.950865, -3.025825, -20.036949, 52.670723, 0.011534, -0.026236, 1.783753

149504303.329435, 0.021075, -0.018631, 0.003971, 0.029778, 0.015516, 0.950865, -3.026644, -20.019894, 52.698551, 0.011916, -0.026592, 1.783941

149504303.330795, 0.017410, -0.016799, 0.002138, 0.014889, 0.015516, 0.966453, -3.027299, -20.006248, 52.720814, 0.012234, -0.026594, 1.783340

149504303.332170, 0.020159, -0.018937, 0.000916, 0.044666, 0.015516, 0.982041, -3.048360, -20.036150, 52.738625, 0.012584, -0.027224, 1.784188

149504303.333534, 0.018021, -0.015272, -0.000916, 0.044666, 0.015516, 0.982041, -3.065208, -20.060070, 52.752872, 0.012897, -0.027792, 1.785004

149504303.334949, 0.019548, -0.010385, 0.003054, 0.029778, 0.000000, 0.950865, -3.058150, -20.058798, 52.740948, 0.012910, -0.028009, 1.785370

149504303.336316, 0.020769, -0.015577, 0.004581, -0.000000, 0.000000, 0.982041, -3.052504, -20.057781, 52.731407, 0.012946, -0.027650, 1.784161

149504303.337715, 0.018326, -0.016799, 0.000611, -0.000000, 0.000000, 0.982041, -3.027451, -20.077375, 52.747097, 0.012955, -0.027319, 1.782895

149504303.339104, 0.019242, -0.014661, 0.001833, 0.044666, 0.000000, 0.966453, -3.007409, -20.093050, 52.759651, 0.012967, -0.027903, 1.783961

149504303.340515, 0.014355, -0.016799, 0.001527, -0.000000, 0.015516, 0.950865, -2.991375, -20.105591, 52.769695, 0.013252, -0.027580, 1.782549

149504303.341929, 0.021380, -0.018021, 0.001222, -0.000000, 0.015516, 0.950865, -3.019620, -20.054399, 52.801052, 0.013628, -0.027280, 1.781194

149504303.343303, 0.014050, -0.018021, -0.000305, 0.044666, 0.015516, 0.935277, -3.042217, -20.013445, 52.826138, 0.013886, -0.027930, 1.782166

149504303.344707, 0.016799, -0.018631, 0.000611, 0.044666, 0.015516, 0.966453, -3.039757, -20.001091, 52.846207, 0.014168, -0.028551, 1.783068

149504303.346069, 0.019242, -0.015577, 0.000305, 0.044666, 0.015516, 0.966453, -3.037790, -19.991207, 52.862263, 0.014470, -0.029110, 1.783948

149504303.347451, 0.016188, -0.013744, -0.000305, 0.044666, 0.000000, 0.966453, -3.036216, -19.983299, 52.875107, 0.014409, -0.029646, 1.785023

149504303.348811, 0.015882, -0.017715, 0.003360, 0.044666, 0.000000, 0.966453, -3.055493, -20.038198, 52.885384, 0.014340, -0.030221, 1.786129

149504303.350187, 0.018631, -0.016799, 0.004276, 0.044666, 0.015516, 0.982041, -3.070915, -20.082117, 52.893604, 0.014625, -0.030752, 1.786980

149504303.351548, 0.023518, -0.017104, 0.003971, 0.014889, 0.000000, 0.966453, -3.062716, -20.056028, 52.876858, 0.014649, -0.030670, 1.786527

149504303.352964, 0.020464, -0.018021, 0.003054, 0.014889, 0.000000, 0.966453, -3.056157, -20.035156, 52.863461, 0.014642, -0.030612, 1.786070

149504303.354338, 0.019548, -0.010385, 0.002749, 0.044666, 0.015516, 0.950865, -3.050909, -20.018459, 52.852741, 0.014945, -0.031078, 1.786961

149504303.355748, 0.016799, -0.013744, 0.003665, 0.059555, 0.015516, 0.966453, -3.087784, -20.005102, 52.914139, 0.015220, -0.031877, 1.788567

149504303.357145, 0.018326, -0.016188, 0.002443, 0.059555, 0.015516, 0.966453, -3.117284, -19.994415, 52.963257, 0.015509, -0.032691, 1.790154

149504303.358541, 0.020769, -0.020159, 0.000611, 0.014889, 0.000000, 0.997629, -3.140884, -20.006275, 52.932579, 0.015488, -0.032608, 1.789654

149504303.359957, 0.022602, -0.016799, 0.004581, 0.029778, 0.015516, 0.950865, -3.159764, -20.015762, 52.908035, 0.015816, -0.032816, 1.789859

149504303.361322, 0.019548, -0.015577, 0.001833, 0.029778, 0.015516, 0.950865, -3.174868, -20.023352, 52.888401, 0.016087, -0.032995, 1.790034

149504303.362721, 0.018631, -0.016188, 0.003054, 0.014889, 0.015516, 0.935277, -3.186951, -20.029423, 52.872692, 0.016356, -0.032876, 1.789490

149504303.364087, 0.019853, -0.014661, 0.002749, 0.014889, 0.000000, 0.982041, -3.196617, -20.034281, 52.860126, 0.016297, -0.032715, 1.789091

149504303.365455, 0.019242, -0.012828, -0.000000, 0.014889, 0.000000, 0.982041, -3.183814, -20.017759, 52.850075, 0.016233, -0.032532, 1.788655

149504303.366823, 0.022297, -0.014966, 0.001833, 0.029778, 0.015516, 0.966453, -3.173572, -20.004541, 52.842033, 0.016528, -0.032699, 1.788834

149504303.368221, 0.019853, -0.010385, 0.001222, 0.029778, 0.000000, 0.982041, -3.124305, -19.973558, 52.765629, 0.016468, -0.032796, 1.789132

149504303.369582, 0.021075, -0.015882, 0.000916, 0.029778, 0.000000, 0.982041, -3.084892, -19.948772, 52.704502, 0.016419, -0.032960, 1.789383

149504303.370994, 0.017715, -0.015272, 0.003665, 0.029778, 0.015516, 0.982041, -3.053361, -19.928944, 52.655602, 0.016650, -0.033119, 1.789455

149504303.372378, 0.019242, -0.018631, 0.003360, 0.029778, 0.015516, 0.982041, -3.028137, -19.892673, 52.639805, 0.016893, -0.033317, 1.789504

149504303.373776, 0.018326, -0.014355, 0.004581, 0.029778, 0.015516, 0.982041, -3.007957, -19.863657, 52.627167, 0.017120, -0.033454, 1.789556

149504303.375173, 0.020769, -0.009774, 0.006109, 0.014889, 0.015516, 0.966453, -3.012350, -19.881260, 52.663708, 0.017387, -0.033228, 1.788906

149504303.376552, 0.018326, -0.012828, 0.002749, 0.014889, 0.015516, 0.966453, -3.015864, -19.895342, 52.692940, 0.017613, -0.033045, 1.788223

149504303.377965, 0.021686, -0.014661, 0.003971, 0.014889, 0.015516, 0.966453, -3.018675, -19.906609, 52.716324, 0.017887, -0.032895, 1.787572

149504303.379329, 0.020464, -0.012523, 0.003054, 0.029778, 0.015516, 0.966453, -3.020924, -19.936029, 52.735031, 0.018123, -0.033022, 1.787661

149504303.380710, 0.020464, -0.014966, 0.000916, 0.029778, 0.015516, 0.966453, -3.022723, -19.959566, 52.749996, 0.018358, -0.033181, 1.787717

149504303.382069, 0.023213, -0.015882, 0.002443, 0.044666, 0.000000, 0.966453, -3.024163, -19.917171, 52.761971, 0.018306, -0.033662, 1.788753

149504303.383447, 0.021380, -0.015577, 0.006414, 0.029778, 0.031033, 0.950865, -3.025314, -19.883255, 52.771549, 0.018878, -0.033827, 1.788722

149504303.384807, 0.025962, -0.014355, 0.003054, 0.029778, 0.031033, 0.950865, -3.026235, -19.856121, 52.779213, 0.019498, -0.033969, 1.788651

149504303.386229, 0.020159, -0.010385, 0.003971, 0.029778, 0.015516, 0.966453, -3.006436, -19.854822, 52.785343, 0.019708, -0.034051, 1.788739

149504303.387601, 0.023213, -0.013439, 0.003665, 0.029778, 0.031033, 0.950865, -2.990597, -19.853785, 52.790249, 0.020277, -0.034179, 1.788646

149504303.389002, 0.022297, -0.015272, 0.002749, 0.029778, 0.031033, 0.950865, -2.998461, -19.812138, 52.817497, 0.020829, -0.034332, 1.788558

149504303.390400, 0.025656, -0.019548, 0.004276, 0.029778, 0.031033, 0.982041, -3.004753, -19.778820, 52.839294, 0.021394, -0.034521, 1.788469

149504303.391796, 0.022602, -0.017104, 0.001833, 0.014889, 0.000000, 0.982041, -3.009787, -19.895023, 52.810085, 0.021280, -0.034362, 1.787924

149504303.393227, 0.021991, -0.015882, 0.003360, 0.014889, 0.000000, 0.982041, -3.013813, -19.987986, 52.786716, 0.021167, -0.034196, 1.787398

149504303.394591, 0.020464, -0.015882, 0.001222, 0.029778, 0.015516, 0.950865, -3.017035, -20.062355, 52.768021, 0.021343, -0.034351, 1.787458

149504303.395985, 0.015577, -0.018326, 0.001222, 0.029778, 0.015516, 0.997629, -3.040148, -20.060627, 52.706417, 0.021440, -0.034512, 1.787475

149504303.397350, 0.014661, -0.016799, 0.004276, 0.029778, 0.015516, 0.997629, -3.058639, -20.059244, 52.657135, 0.021517, -0.034644, 1.787549

149504303.398716, 0.017104, -0.016799, 0.003054, 0.029778, 0.015516, 0.982041, -3.073431, -20.017321, 52.734329, 0.021630, -0.034783, 1.787649

149504303.400088, 0.018021, -0.013744, 0.001222, 0.029778, 0.015516, 0.982041, -3.085266, -19.983782, 52.796085, 0.021755, -0.034879, 1.787742

149504303.401478, 0.018631, -0.016799, 0.001833, 0.029778, 0.000000, 0.966453, -3.094733, -19.956951, 52.845490, 0.021572, -0.035031, 1.788069

149504303.402840, 0.019548, -0.014661, 0.002443, 0.044666, 0.015516, 0.982041, -3.081770, -19.935488, 52.861687, 0.021721, -0.035438, 1.788898

149504303.404243, 0.024740, -0.015272, 0.001222, 0.044666, 0.015516, 0.982041, -3.071400, -19.918316, 52.874645, 0.021946, -0.035850, 1.789689

149504303.405629, 0.020464, -0.015882, 0.076664, 0.014889, 0.000000, 0.966453, -3.063104, -19.924988, 52.838364, 0.021753, -0.035674, 1.790196

149504303.407026, 0.020769, -0.012828, 0.003360, 0.014889, 0.031033, 0.950865, -3.056467, -19.930325, 52.809338, 0.022262, -0.035455, 1.789389

149504303.408422, 0.022907, -0.014355, 0.001222, 0.014889, 0.031033, 0.950865, -3.051158, -19.934593, 52.786118, 0.022790, -0.035259, 1.788562

149504303.409811, 0.023213, -0.017104, 0.002443, 0.014889, 0.015516, 0.966453, -3.046910, -19.917601, 52.814190, 0.022978, -0.035094, 1.787907

149504303.411222, 0.017410, -0.020464, 0.002749, 0.029778, 0.000000, 0.966453, -3.043512, -19.904007, 52.836647, 0.022757, -0.035295, 1.788206

149504303.412585, 0.024435, -0.016493, 0.001222, 0.029778, 0.000000, 0.966453, -3.061330, -19.872723, 52.807964, 0.022627, -0.035429, 1.788501

149504303.413976, 0.016188, -0.014661, 0.001222, 0.029778, 0.015516, 0.966453, -3.075585, -19.847696, 52.785019, 0.022716, -0.035537, 1.788617

149504303.415338, 0.016493, -0.010385, 0.002749, 0.014889, 0.015516, 0.966453, -3.086988, -19.827675, 52.766663, 0.022808, -0.035272, 1.788019

149504303.416710, 0.023518, -0.011606, 0.004581, 0.014889, 0.015516, 0.966453, -3.034502, -19.852474, 52.775303, 0.022994, -0.035029, 1.787405

149504303.418072, 0.023213, -0.013744, -0.000916, 0.029778, 0.015516, 0.950865, -2.992512, -19.872314, 52.782215, 0.023171, -0.035138, 1.787453

149504303.419457, 0.018631, -0.012217, 0.001833, 0.029778, 0.015516, 0.966453, -2.979458, -19.847370, 52.787746, 0.023281, -0.035218, 1.787510

149504303.420846, 0.021075, -0.014355, 0.000916, 0.029778, 0.015516, 0.966453, -2.969014, -19.827414, 52.792171, 0.023423, -0.035326, 1.787548

149504303.422253, 0.009468, -0.010385, 0.005498, 0.029778, 0.000000, 0.966453, -3.001731, -19.872673, 52.772385, 0.023082, -0.035383, 1.787860

149504303.423675, 0.011606, -0.010690, 0.002138, 0.029778, 0.000000, 0.966453, -3.027905, -19.908880, 52.756557, 0.022781, -0.035444, 1.788136

149504303.425049, 0.011912, -0.011912, 0.000305, 0.014889, 0.000000, 0.997629, -3.048845, -19.937847, 52.743893, 0.022491, -0.035188, 1.787596

149504303.426459, 0.016799, -0.009468, -0.000000, 0.029778, 0.015516, 0.966453, -3.003987, -19.940613, 52.733761, 0.022595, -0.035231, 1.787628

149504303.427820, 0.018631, -0.010996, 0.000916, 0.029778, 0.015516, 0.966453, -2.968101, -19.942825, 52.725658, 0.022713, -0.035290, 1.787638

149504303.429218, 0.020159, -0.011606, 0.000916, 0.029778, 0.015516, 0.966453, -2.959928, -19.944595, 52.742500, 0.022856, -0.035359, 1.787640

149504303.430577, 0.026878, -0.017410, 0.003360, 0.014889, 0.000000, 0.950865, -2.953390, -19.946011, 52.755974, 0.022761, -0.035192, 1.787092

149504303.431951, 0.022602, -0.015577, 0.003054, 0.014889, 0.000000, 0.950865, -2.948160, -19.947144, 52.766750, 0.022615, -0.035005, 1.786546

149504303.433313, 0.021380, -0.014661, 0.001222, 0.014889, 0.015516, 0.982041, -3.005585, -20.009274, 52.775372, 0.022770, -0.034802, 1.785852

149504303.434717, 0.021991, -0.016799, 0.003665, 0.014889, 0.031033, 0.950865, -3.051524, -20.058977, 52.782269, 0.023276, -0.034654, 1.785109

149504303.436088, 0.020159, -0.016188, 0.004276, 0.014889, 0.031033, 0.950865, -3.026667, -19.976292, 52.764462, 0.023739, -0.034497, 1.784380

149504303.437507, 0.020464, -0.010690, 0.003054, 0.029778, 0.015516, 0.982041, -3.006782, -19.910143, 52.750217, 0.023864, -0.034563, 1.784507

149504303.438908, 0.017715, -0.000916, 0.004581, 0.029778, 0.015516, 0.982041, -2.990873, -19.857224, 52.738823, 0.023943, -0.034492, 1.784651

149504303.440310, 0.016493, -0.000000, 0.002443, 0.029778, 0.015516, 0.982041, -2.998682, -19.855705, 52.776356, 0.024006, -0.034410, 1.784772

149504303.441707, 0.014355, -0.007025, 0.004581, 0.029778, 0.015516, 0.950865, -3.004930, -19.854490, 52.806381, 0.024047, -0.034446, 1.784965

149504303.443076, 0.015882, -0.015882, 0.003054, 0.044666, 0.015516, 0.982041, -3.030464, -19.873926, 52.783752, 0.024099, -0.034884, 1.785828

149504303.444476, 0.018937, -0.011606, 0.002443, 0.044666, 0.015516, 0.982041, -3.050892, -19.889475, 52.765652, 0.024195, -0.035258, 1.786682

149504303.445838, 0.013439, -0.010690, 0.003054, 0.014889, 0.031033, 0.950865, -3.067234, -19.881506, 52.727844, 0.024550, -0.035013, 1.785958

149504303.447218, 0.013439, -0.001222, 0.002443, 0.014889, 0.031033, 0.935277, -3.080307, -19.875132, 52.697601, 0.024909, -0.034651, 1.785263

149504303.448579, 0.013439, -0.003360, 0.003054, 0.014889, 0.000000, 0.935277, -3.090766, -19.870031, 52.673405, 0.024593, -0.034318, 1.784922

149504303.449962, 0.015272, -0.007941, 0.004887, 0.014889, -0.030966, 0.935277, -3.140206, -19.886360, 52.654049, 0.023643, -0.034060, 1.785043

149504303.451328, 0.012217, -0.008552, 0.004887, 0.014889, -0.030966, 0.935277, -3.179758, -19.899422, 52.638565, 0.022668, -0.033816, 1.785198

149504303.452737, 0.011912, -0.004581, 0.003054, 0.029778, 0.015516, 0.950865, -3.129254, -19.909872, 52.672825, 0.022704, -0.033830, 1.785463

149504303.454113, 0.012523, -0.005192, 0.003360, 0.014889, 0.000000, 0.950865, -3.088851, -19.918232, 52.700233, 0.022421, -0.033533, 1.785097

149504303.455511, 0.015577, -0.006414, 0.000611, 0.014889, 0.000000, 0.950865, -3.056529, -19.924919, 52.722160, 0.022190, -0.033259, 1.784670

149504303.456939, 0.014661, -0.012523, -0.001222, 0.029778, 0.000000, 0.982041, -3.071743, -19.971087, 52.716377, 0.021951, -0.033378, 1.784964

149504303.458351, 0.016188, -0.011301, 0.001833, 0.029778, 0.000000, 0.966453, -3.083915, -20.008020, 52.711750, 0.021735, -0.033487, 1.785323

149504303.459754, 0.017410, -0.011606, 0.002443, 0.029778, 0.000000, 0.966453, -3.093652, -20.037567, 52.661400, 0.021538, -0.033597, 1.785684

149504303.461120, 0.020464, -0.008552, 0.002138, 0.044666, 0.000000, 0.950865, -3.101442, -20.061205, 52.621120, 0.021388, -0.033991, 1.786823

149504303.462521, 0.020159, -0.011301, 0.003054, 0.044666, 0.000000, 0.982041, -3.107674, -20.080114, 52.588898, 0.021241, -0.034387, 1.787880

149504303.463876, 0.023213, -0.009468, 0.003665, 0.044666, 0.000000, 0.982041, -3.112660, -20.034018, 52.633091, 0.021129, -0.034746, 1.788941

149504303.465243, 0.031154, -0.014050, 0.004276, 0.029778, 0.000000, 0.982041, -3.116648, -19.997141, 52.668446, 0.021121, -0.034849, 1.789261

149504303.466613, 0.029627, -0.018021, 0.003971, 0.014889, 0.015516, 0.919689, -3.119839, -20.008455, 52.626759, 0.021438, -0.034718, 1.788691

149504303.468008, 0.031154, -0.017104, 0.003665, 0.014889, 0.015516, 0.919689, -3.122391, -20.017506, 52.593407, 0.021777, -0.034581, 1.788131

149504303.469373, 0.031154, -0.016799, 0.003665, 0.059555, 0.015516, 0.966453, -3.124434, -20.024746, 52.566727, 0.022098, -0.035350, 1.789718

149504303.470800, 0.034208, -0.014661, 0.001222, 0.014889, 0.015516, 0.982041, -3.126067, -20.030539, 52.592030, 0.022456, -0.035149, 1.789067

149504303.472177, 0.035125, -0.016493, 0.000305, 0.014889, 0.015516, 0.982041, -3.127374, -20.035173, 52.612270, 0.022804, -0.034970, 1.788416

149504303.473572, 0.041539, -0.017410, 0.002749, 0.044666, 0.031033, 0.966453, -3.148956, -20.059290, 52.651791, 0.023560, -0.035430, 1.789091

149504303.474988, 0.029322, -0.018021, 0.001222, 0.044666, 0.031033, 0.966453, -3.166222, -20.078583, 52.683407, 0.024140, -0.035892, 1.789742

149504303.476390, 0.029016, -0.018021, 0.003665, 0.014889, 0.015516, 0.966453, -3.159498, -20.053200, 52.755344, 0.024382, -0.035729, 1.789161

149504303.477788, 0.029322, -0.021991, -0.000611, 0.014889, 0.015516, 0.982041, -3.154119, -20.032894, 52.812897, 0.024619, -0.035615, 1.788521

149504303.479166, 0.015577, -0.015577, -0.000611, 0.014889, 0.015516, 0.982041, -3.149815, -20.016649, 52.858936, 0.024659, -0.035414, 1.787895

149504303.480569, 0.020464, -0.014355, 0.002443, 0.029778, 0.031033, 0.982041, -3.166909, -19.983246, 52.849121, 0.025078, -0.035510, 1.787900

149504303.481929, 0.023518, -0.013744, 0.003665, 0.044666, 0.000000, 0.966453, -3.180584, -19.956522, 52.841270, 0.024894, -0.035922, 1.789086

149504303.483297, 0.025045, -0.011606, 0.001222, 0.044666, 0.000000, 0.966453, -3.212060, -19.975960, 52.811665, 0.024738, -0.036297, 1.790239

149504303.484667, 0.017410, -0.014050, 0.001527, 0.014889, 0.015516, 0.966453, -3.237241, -19.991510, 52.787979, 0.024803, -0.036066, 1.789703

149504303.486059, 0.021380, -0.018021, 0.001222, 0.014889, 0.000000, 0.966453, -3.257386, -20.003950, 52.769032, 0.024602, -0.035894, 1.789355

149504303.487421, 0.021991, -0.011912, -0.006109, 0.014889, 0.000000, 0.966453, -3.232429, -19.973085, 52.823845, 0.024410, -0.035637, 1.788900

149504303.488829, 0.040012, -0.016188, -0.049175, 0.014889, 0.000000, 0.966453, -3.212464, -19.948395, 52.867695, 0.024502, -0.035434, 1.787842

149504303.490206, 0.025045, -0.010690, -0.255036, 0.044666, -0.015483, 0.966453, -3.217028, -19.928642, 52.902775, 0.024160, -0.035738, 1.785826

149504303.491601, 0.011912, 0.002443, -0.007636, 0.044666, -0.015483, 0.966453, -3.220679, -19.912840, 52.930840, 0.023531, -0.035941, 1.787204

149504303.493006, 0.011912, 0.000916, 0.141721, 0.029778, 0.031033, 0.966453, -3.223600, -19.900198, 52.953293, 0.023796, -0.035871, 1.789232

149504303.494394, 0.023518, 0.016188, 0.153022, 0.044666, 0.077582, 0.950865, -3.225936, -19.890085, 52.947929, 0.025194, -0.035914, 1.791529

149504303.495788, 0.010996, 0.048258, 0.178067, 0.044666, 0.077582, 0.950865, -3.227806, -19.881994, 52.943642, 0.026382, -0.035531, 1.794146

149504303.497168, 0.016493, 0.068722, 0.059254, 0.014889, 0.000000, 0.966453, -3.229301, -19.855114, 52.940208, 0.026053, -0.034214, 1.794529

149504303.498576, 0.000000, 0.029627, 0.008552, 0.074444, 0.000000, 0.950865, -3.230498, -19.833609, 52.937462, 0.025585, -0.034719, 1.797269

149504303.499937, -0.005498, -0.004887, 0.058643, 0.074444, 0.000000, 0.950865, -3.251991, -19.857222, 52.865295, 0.025029, -0.035703, 1.800614

149504303.501301, 0.030543, 0.041539, 0.031460, 0.029778, 0.015516, 0.982041, -3.269186, -19.876112, 52.807560, 0.025237, -0.035051, 1.801061

149504303.502670, 0.058338, 0.012828, -0.009163, 0.029778, 0.015516, 0.982041, -3.282942, -19.891224, 52.761372, 0.025835, -0.034781, 1.800955

149504303.504057, 0.028405, -0.025351, -0.018937, 0.014889, -0.015483, 0.950865, -3.314483, -19.903313, 52.794395, 0.025390, -0.034729, 1.800381

149504303.505421, -0.010385, -0.032681, 0.072998, 0.074444, 0.000000, 0.966453, -3.339716, -19.912985, 52.820812, 0.024762, -0.036064, 1.803846

149504303.506827, 0.000000, -0.057727, 0.368963, 0.074444, 0.000000, 0.966453, -3.421511, -19.920723, 52.818623, 0.024130, -0.037828, 1.811413

149504303.508209, -0.023213, -0.115759, 0.318261, 0.059555, 0.031033, 0.982041, -3.486947, -19.926912, 52.816872, 0.023810, -0.039948, 1.816840

149504303.509604, -0.036652, -0.137139, 0.245262, 0.014889, 0.046549, 0.935277, -3.539296, -19.931864, 52.815472, 0.023707, -0.041435, 1.819047

149504303.511020, -0.057116, -0.176845, 0.105374, 0.014889, 0.046549, 0.935277, -3.540103, -19.956234, 52.767700, 0.023391, -0.043428, 1.819301

149504303.512414, -0.047647, -0.228464, 0.091935, 0.014889, 0.000000, 0.982041, -3.540748, -19.975729, 52.729485, 0.022230, -0.046005, 1.819801

149504303.513809, -0.033598, -0.267559, 0.085521, 0.044666, 0.015516, 0.982041, -3.438582, -19.991325, 52.698914, 0.021588, -0.049678, 1.821358

149504303.515175, 0.030238, -0.339336, 0.049786, 0.044666, 0.015516, 0.982041, -3.356850, -20.003803, 52.674454, 0.021846, -0.054150, 1.822285

149504303.516578, -0.082772, -0.331394, 0.019548, -0.000000, -0.030966, 0.997629, -3.291464, -20.013784, 52.654888, 0.019684, -0.057589, 1.821001

149504303.517937, -0.154243, -0.335060, -0.026573, 0.014889, 0.077582, 0.982041, -3.095401, -20.042177, 52.709206, 0.018880, -0.061253, 1.818705

149504303.519301, -0.414472, -0.458149, -0.007941, 0.014889, 0.077582, 0.982041, -2.938550, -20.064892, 52.752663, 0.014604, -0.066512, 1.816554

149504303.520673, -0.339641, -0.679893, 0.091935, 0.014889, 0.000000, 0.997629, -2.628242, -20.225922, 52.740780, 0.009712, -0.074629, 1.816113

149504303.522063, -0.277944, -0.904081, 0.227242, 0.014889, -0.185798, 0.950865, -2.379996, -20.354744, 52.731274, 0.001572, -0.085921, 1.820696

149504303.523427, -0.105985, -0.984409, 0.222050, 0.089333, -0.154832, 0.950865, -2.181399, -20.457802, 52.723667, -0.003377, -0.099692, 1.829786

149504303.524826, -0.006720, -0.935846, 0.300546, 0.133999, 0.077582, 1.013217, -1.735013, -20.581066, 52.717583, -0.002307, -0.113082, 1.835394

149504303.526218, -0.143553, -0.872010, 0.063835, 0.133999, 0.077582, 1.013217, -1.377904, -20.679678, 52.712715, -0.002798, -0.125293, 1.837323

149504303.527621, -0.726319, -0.573908, -0.192423, 0.178665, 0.062065, 0.950865, -0.804707, -20.921831, 52.708820, -0.011028, -0.134303, 1.837383

149504303.529026, -0.889420, -0.426689, -0.268781, 0.104221, -0.061933, 0.966453, -0.346150, -21.115555, 52.705704, -0.023862, -0.139727, 1.835087

149504303.530422, -0.857655, -0.393092, -0.196699, 0.104221, -0.061933, 0.966453, 0.226059, -21.597063, 52.493298, -0.036053, -0.144543, 1.833155

149504303.531841, -0.815811, -0.343001, -0.170126, 0.089333, -0.154832, 0.997629, 0.683826, -21.982271, 52.323372, -0.049461, -0.148318, 1.831702

149504303.533209, -0.683558, -0.198837, -0.048869, 0.163776, 0.000000, 0.997629, 1.050040, -22.290438, 52.187431, -0.057555, -0.151269, 1.832399

149504303.534608, -0.657291, 0.061392, -0.123089, 0.163776, 0.000000, 0.997629, 1.343011, -22.822685, 51.985382, -0.065146, -0.150736, 1.831447

149504303.535968, -0.692721, 0.131947, -0.217773, 0.163776, 0.000000, 0.966453, 1.577388, -23.248482, 51.823742, -0.072618, -0.149497, 1.829123

149504303.537335, -0.691805, 0.165239, -0.292910, 0.104221, -0.030966, 0.919689, 1.764889, -23.895243, 51.577812, -0.080465, -0.146891, 1.823506

149504303.538695, -0.935235, 0.057116, -0.471893, 0.104221, -0.030966, 0.919689, 1.914890, -24.412651, 51.381065, -0.091034, -0.146035, 1.815493

149504303.540079, -0.933097, 0.007330, -0.410196, 0.119110, -0.185798, 0.982041, 2.034891, -24.826578, 51.223671, -0.104806, -0.145971, 1.810873

149504303.541441, -0.836580, 0.011912, -0.289550, 0.133999, -0.154832, 0.982041, 2.233574, -25.402617, 50.887836, -0.116445, -0.146017, 1.807875

149504303.542841, -0.961502, 0.021686, -0.288023, 0.133999, -0.154832, 0.982041, 2.392520, -25.863447, 50.619171, -0.129853, -0.145975, 1.804493

149504303.544226, -0.973719, 0.173791, -0.267864, 0.148888, -0.092899, 0.935277, 2.416995, -26.640276, 50.264294, -0.141877, -0.144339, 1.801163

149504303.545625, -1.099557, 0.243430, -0.333532, 0.089333, -0.123865, 0.935277, 2.436575, -27.261738, 49.980392, -0.155985, -0.140744, 1.793976

149504303.547025, -1.239446, 0.125533, -0.448070, 0.089333, -0.123865, 0.935277, 2.452239, -27.758907, 49.753269, -0.171552, -0.139162, 1.785503

149504303.548415, -1.583974, 0.236405, -0.537561, 0.133999, -0.170315, 0.872925, 2.608525, -28.605623, 49.245037, -0.192460, -0.137528, 1.779023

149504303.549838, -1.985923, 0.438601, -0.677450, 0.133999, -0.170315, 0.935277, 2.733553, -29.282995, 48.838451, -0.218487, -0.133507, 1.768895

149504303.551203, -2.227215, -0.021991, -0.837496, 0.133999, -0.247731, 0.935277, 2.915722, -30.477955, 47.953407, -0.247611, -0.136469, 1.759171

149504303.552597, -1.939497, -0.096517, -0.757778, 0.059555, -0.464495, 1.028805, 3.061456, -31.433924, 47.245373, -0.276135, -0.138462, 1.745530

149504303.553959, -1.594664, 0.020769, -0.432187, 0.059555, -0.464495, 1.028805, 3.178044, -32.770126, 46.282436, -0.299431, -0.137881, 1.736019

149504303.555327, -1.677436, 0.634384, -0.210749, 0.133999, -0.309663, 0.950865, 3.312387, -33.839088, 45.512089, -0.321512, -0.130550, 1.731579

149504303.556690, -1.580003, 0.698524, -0.157909, 0.089333, -0.294180, 0.841749, 3.419861, -34.694260, 44.895809, -0.342258, -0.121806, 1.725466

149504303.558077, -1.349707, 0.538478, -0.026573, 0.089333, -0.294180, 0.841749, 3.403159, -35.806965, 43.936306, -0.360127, -0.114635, 1.721479

149504303.559440, -1.638646, 0.443183, -0.101404, 0.133999, -0.294180, 0.779397, 3.389797, -36.697132, 43.168705, -0.381592, -0.110482, 1.720285

149504303.560840, -1.739439, 0.315512, -0.124922, 0.119110, -0.340630, 0.857337, 3.255889, -37.837837, 42.111469, -0.405026, -0.107491, 1.717640

149504303.562220, -1.805718, 0.079107, -0.148746, 0.119110, -0.340630, 0.857337, 3.148763, -38.750401, 41.265678, -0.428659, -0.107733, 1.715878

149504303.563625, -1.667968, 0.151800, -0.205862, 0.119110, -0.387079, 0.919689, 3.063062, -39.480450, 40.589046, -0.450658, -0.107264, 1.712589

149504303.565040, -1.489290, 0.324369, -0.207389, 0.119110, -0.449012, 0.810573, 3.015038, -40.554287, 39.511288, -0.471894, -0.104960, 1.709856

149504303.566428, -1.300227, 0.513127, -0.102014, 0.119110, -0.449012, 0.810573, 2.976618, -41.413357, 38.649082, -0.489777, -0.099885, 1.706991

149504303.567844, -1.071458, 0.409585, -0.008858, 0.059555, -0.557394, 0.763810, 2.822664, -42.406734, 37.609459, -0.507164, -0.094112, 1.702571

149504303.569209, -0.971581, 0.254731, 0.112705, 0.059555, -0.510945, 0.826161, 2.699502, -43.201435, 36.777760, -0.521035, -0.089714, 1.700280

149504303.570599, -0.991434, 0.225715, 0.272751, 0.059555, -0.510945, 0.826161, 2.600971, -43.837196, 36.112400, -0.535317, -0.084601, 1.700118

149504303.571961, -1.265102, 0.309403, 0.203724, 0.089333, -0.479978, 0.841749, 2.337320, -44.590702, 35.206928, -0.551887, -0.079809, 1.700071

149504303.573334, -1.519833, 0.445626, 0.024740, 0.089333, -0.479978, 0.841749, 2.126399, -45.193508, 34.482552, -0.571438, -0.074804, 1.696984

149504303.574726, -1.390940, 0.561996, -0.143248, 0.074444, -0.541911, 0.763810, 1.896053, -46.002285, 33.413246, -0.590902, -0.069561, 1.691203

149504303.576104, -1.402852, 0.493274, -0.173791, 0.014889, -0.696743, 0.748222, 1.711776, -46.649303, 32.557800, -0.612535, -0.064036, 1.681648

149504303.577491, -1.383915, 0.499688, -0.117897, 0.014889, -0.696743, 0.748222, 1.564354, -47.166920, 31.873446, -0.633695, -0.058271, 1.673031

149504303.578851, -1.188133, 0.441656, 0.043677, 0.059555, -0.634810, 0.639106, 1.384808, -47.825912, 30.859482, -0.652308, -0.053475, 1.671615

149504303.580234, -1.080315, 0.321010, 0.108429, 0.059555, -0.603844, 0.654694, 1.241171, -48.353107, 30.048311, -0.668720, -0.049446, 1.671243

149504303.581617, -0.935846, 0.228464, 0.142637, 0.059555, -0.603844, 0.654694, 0.982507, -48.938126, 29.026190, -0.682891, -0.046206, 1.672026

149504303.582990, -0.899805, 0.132558, 0.228464, 0.029778, -0.588361, 0.654694, 0.775576, -49.406143, 28.208492, -0.696039, -0.042610, 1.672418

149504303.584376, -1.082148, 0.180816, 0.187841, 0.014889, -0.619327, 0.639106, 0.610031, -50.045860, 27.554335, -0.712201, -0.038522, 1.671118

149504303.585752, -1.303586, 0.251066, 0.136528, 0.014889, -0.619327, 0.639106, 0.333841, -50.557636, 26.634501, -0.730889, -0.034302, 1.668911

149504303.587142, -1.429425, 0.242514, 0.020464, 0.059555, -0.650293, 0.670282, 0.112888, -50.967056, 25.898634, -0.751051, -0.032279, 1.668470

149504303.588524, -1.240056, 0.131947, -0.047342, 0.044666, -0.696743, 0.607930, -0.002265, -51.457855, 24.726841, -0.769825, -0.031809, 1.668266

149504303.589895, -1.086424, 0.161574, -0.135001, 0.044666, -0.696743, 0.607930, -0.094387, -51.850494, 23.789408, -0.785989, -0.031911, 1.666839

149504303.591287, -1.051910, 0.110567, -0.005192, 0.014889, -0.696743, 0.654694, -0.188621, -52.348282, 22.689600, -0.800909, -0.030570, 1.664855

149504303.592648, -1.207070, 0.266337, 0.045509, -0.000000, -0.805125, 0.561166, -0.264008, -52.746510, 21.809755, -0.820150, -0.026969, 1.661293

149504303.594037, -1.468520, 0.466090, 0.077580, -0.000000, -0.805125, 0.561166, -0.324318, -53.065094, 21.105879, -0.842872, -0.021297, 1.656035

149504303.595435, -1.957823, 0.465174, 0.207389, -0.015630, -0.820608, 0.498814, -0.454711, -53.524044, 19.866383, -0.873230, -0.014039, 1.650583

149504303.596803, -2.058005, 0.380264, 0.208916, -0.015630, -0.820608, 0.498814, -0.559026, -53.891201, 18.874784, -0.903780, -0.007916, 1.646247

149504303.598186, -2.103820, 0.270002, 0.129503, 0.059555, -0.758675, 0.545578, -0.745160, -54.409416, 17.288490, -0.933061, -0.005435, 1.647533

149504303.599544, -1.367422, 0.243124, 0.055283, -0.000000, -0.743192, 0.529990, -0.894066, -54.823990, 16.019455, -0.951626, -0.002827, 1.644763

149504303.600928, -1.321607, 0.174097, -0.023824, -0.000000, -0.743192, 0.529990, -1.013192, -55.155647, 15.004228, -0.969526, -0.001687, 1.642187

149504303.602323, -1.421178, 0.233351, -0.128893, 0.014889, -0.898024, 0.545578, -1.149565, -55.502609, 13.608946, -0.990058, -0.001636, 1.639349

149504303.603685, -1.486235, 0.369573, -0.143859, -0.031260, -0.836091, 0.420875, -1.258663, -55.780178, 12.492721, -1.012131, 0.000209, 1.631975

149504303.605092, -1.781283, 0.369268, -0.137750, -0.031260, -0.836091, 0.420875, -1.304869, -56.043049, 10.969993, -1.038512, 0.001952, 1.624746

149504303.606455, -1.889406, 0.402560, -0.051924, 0.014889, -0.805125, 0.420875, -1.341834, -56.253345, 9.751810, -1.064773, 0.003634, 1.621197

149504303.607837, -1.789224, 0.481362, -0.214414, 0.014889, -0.898024, 0.342935, -1.371406, -56.421581, 8.777265, -1.091831, 0.003623, 1.616752

149504303.609222, -1.575727, 0.519846, -0.247400, 0.014889, -0.898024, 0.342935, -1.333454, -56.760254, 7.274585, -1.115492, 0.003316, 1.611241

149504303.610583, -1.419040, 0.495412, -0.222966, 0.029778, -0.975440, 0.296171, -1.303093, -57.031189, 6.072441, -1.137574, 0.002510, 1.608480

149504303.611962, -1.075428, 0.392786, -0.019242, -0.015630, -0.990923, 0.264995, -1.258268, -57.227531, 4.620923, -1.155562, 0.004710, 1.603572

149504303.613339, -0.902859, 0.200975, 0.094073, -0.015630, -0.990923, 0.264995, -1.222408, -57.384605, 3.459707, -1.170834, 0.007162, 1.601579

149504303.614714, -0.918436, 0.001833, 0.133169, 0.029778, -0.820608, 0.358523, -1.193719, -57.510265, 2.530735, -1.182924, 0.008049, 1.604496

149504303.616102, -1.129795, 0.225715, -0.078191, 0.029778, -0.820608, 0.358523, -1.088623, -57.590385, 1.344402, -1.197791, 0.007414, 1.603199

149504303.617461, -0.999986, 0.306349, -0.130420, -0.000000, -0.882541, 0.233819, -1.004547, -57.654480, 0.395336, -1.213420, 0.007064, 1.599506

149504303.618847, -0.827722, 0.262061, -0.100182, -0.015630, -0.836091, 0.218231, -1.019431, -57.726166, -0.737101, -1.226727, 0.007254, 1.595148

149504303.620229, -1.135599, 0.157298, -0.167988, -0.015630, -0.836091, 0.218231, -1.031338, -57.783512, -1.643051, -1.243901, 0.006040, 1.591942

149504303.621597, -1.254717, 0.274584, -0.161879, -0.015630, -0.990923, 0.296171, -0.897109, -57.747757, -2.834290, -1.261469, 0.005315, 1.587422

149504303.622981, -1.376279, 0.455705, -0.165544, 0.029778, -1.099305, 0.218231, -0.789726, -57.719151, -3.787282, -1.282394, 0.004228, 1.583507

149504303.624357, -1.126436, 0.356440, -0.214414, 0.029778, -1.099305, 0.218231, -0.703820, -57.696266, -4.549675, -1.299414, 0.002068, 1.580573

149504303.625736, -0.712269, 0.098960, -0.164628, 0.014889, -0.913507, 0.155879, -0.594022, -57.596329, -5.556097, -1.311069, -0.000169, 1.580446

149504303.627122, -0.524122, -0.046426, -0.197004, -0.000000, -0.990923, 0.218231, -0.506184, -57.516376, -6.361234, -1.319049, -0.002921, 1.580731

149504303.628491, -0.515876, 0.023213, -0.152105, -0.000000, -0.990923, 0.218231, -0.333231, -57.472824, -7.285232, -1.326667, -0.004767, 1.580072

149504303.629874, -0.686918, 0.048564, -0.100793, -0.000000, -0.990923, 0.202643, -0.194870, -57.437981, -8.024430, -1.336822, -0.005843, 1.579126

149504303.631235, -0.886060, 0.153633, -0.061392, -0.000000, -0.990923, 0.046764, -0.084180, -57.410107, -8.615789, -1.352357, -0.006063, 1.576939

149504303.632621, -0.985326, 0.363770, 0.037263, -0.000000, -0.990923, 0.046764, 0.086517, -57.244949, -9.415412, -1.369139, -0.004397, 1.571957

149504303.634005, -0.981355, 0.036652, 0.040012, 0.029778, -0.944474, 0.155879, 0.223075, -57.112823, -10.055110, -1.383195, -0.004320, 1.573079

149504303.635375, -0.641103, -0.172875, 0.042761, 0.029778, -0.944474, 0.155879, 0.270712, -57.047939, -10.870080, -1.392272, -0.004723, 1.576836

149504303.636754, -0.150273, -0.120951, -0.036041, -0.000000, -0.990923, 0.171467, 0.308821, -56.996033, -11.522057, -1.394454, -0.005396, 1.577946

149504303.638114, -0.023213, -0.152716, 0.007330, -0.015630, -1.052856, 0.155879, 0.339309, -56.954506, -12.043637, -1.395348, -0.005237, 1.578705

149504303.639495, 0.031460, -0.163101, 0.032070, -0.015630, -1.052856, 0.155879, 0.343163, -56.900879, -12.390930, -1.395490, -0.004778, 1.579692

149504303.640879, -0.332005, -0.250760, -0.031765, -0.000000, -1.006406, 0.187055, 0.346246, -56.857975, -12.668765, -1.399839, -0.005696, 1.582486

149504303.642243, -0.505491, -0.182343, -0.037568, 0.044666, -0.913507, 0.187055, 0.348712, -56.782837, -13.124272, -1.405958, -0.007412, 1.586386

149504303.643629, -0.827112, -0.016188, -0.105680, 0.044666, -0.913507, 0.187055, 0.350685, -56.722725, -13.488678, -1.416422, -0.009638, 1.587849

149504303.644998, -1.091922, 0.404087, -0.197920, 0.014889, -0.959957, 0.093528, 0.352264, -56.674637, -13.780203, -1.432155, -0.011593, 1.582272

149504303.646381, -0.817032, 0.402866, -0.147524, -0.000000, -0.975440, 0.000000, 0.517818, -56.513718, -14.456578, -1.445929, -0.012567, 1.575665

149504303.647764, -0.562607, 0.157298, -0.054672, -0.000000, -0.975440, 0.000000, 0.650261, -56.384983, -14.997679, -1.456020, -0.012742, 1.572510

149504303.649126, -0.253509, -0.012217, 0.103236, 0.029778, -0.975440, 0.000000, 0.756215, -56.200363, -15.570503, -1.461689, -0.011812, 1.574001

149504303.650506, -0.100793, 0.058032, 0.210749, -0.000000, -1.006406, -0.015116, 0.840978, -56.052666, -16.028763, -1.465525, -0.008588, 1.572371

149504303.651894, 0.076358, -0.085827, 0.322231, -0.000000, -1.006406, -0.015116, 0.908789, -55.934509, -16.395370, -1.466899, -0.004108, 1.572802

149504303.653262, -0.201586, -0.457844, 0.309403, -0.000000, -0.990923, 0.093528, 0.757674, -55.880798, -16.642008, -1.469814, -0.000523, 1.578602

149504303.654644, -0.367741, -0.301157, 0.207389, -0.000000, -0.944474, 0.062352, 0.636782, -55.837830, -16.839317, -1.475493, 0.001895, 1.582159

149504303.656011, -0.634994, -0.124617, 0.099266, -0.000000, -0.944474, 0.062352, 0.519532, -55.721821, -17.253729, -1.484585, 0.003037, 1.583217

149504303.657395, -1.031751, -0.274584, 0.013744, -0.000000, -0.990923, 0.077940, 0.425733, -55.629017, -17.585258, -1.498716, 0.002866, 1.586305

149504303.658775, -0.864680, -0.311236, -0.020769, -0.000000, -0.990923, 0.077940, 0.330156, -55.513958, -18.200342, -1.510274, 0.002244, 1.589885

149504303.660153, -0.662789, -0.247400, -0.099571, -0.000000, -0.990923, 0.015588, 0.253695, -55.421909, -18.692410, -1.520117, 0.000682, 1.592504

149504303.661542, -0.514043, -0.305127, -0.150578, 0.029778, -0.928990, 0.031176, 0.192526, -55.348270, -19.086063, -1.527442, -0.002219, 1.597604

149504303.662902, -0.661567, -0.218995, -0.219606, 0.029778, -0.928990, 0.031176, 0.164128, -55.166908, -19.610903, -1.536453, -0.005853, 1.601341

149504303.664295, -0.725708, -0.061697, -0.295048, 0.014889, -0.898024, -0.045349, 0.141409, -55.021820, -20.030773, -1.548067, -0.010131, 1.602360

149504303.665677, -0.965473, -0.002443, -0.451124, 0.059555, -0.944474, -0.060465, 0.328597, -54.803707, -20.716530, -1.562800, -0.017401, 1.605301

149504303.667045, -0.885144, 0.081551, -0.392481, 0.059555, -0.944474, -0.060465, 0.478348, -54.629219, -21.265135, -1.576027, -0.023647, 1.606868

149504303.668430, -1.041525, 0.150273, -0.404698, -0.000000, -1.006406, -0.015116, 0.598148, -54.489628, -21.704020, -1.590290, -0.028696, 1.603600

149504303.669790, -1.555263, 0.318872, -0.388816, 0.044666, -0.990923, -0.136046, 0.837743, -54.153465, -22.498281, -1.613211, -0.034398, 1.601099

149504303.671183, -1.344514, 0.552222, -0.328340, 0.044666, -0.990923, -0.136046, 1.029419, -53.884537, -23.133692, -1.633170, -0.039522, 1.595097

149504303.672569, -0.749226, 0.550390, -0.211665, 0.014889, -0.959957, -0.302325, 1.449732, -53.526535, -23.921907, -1.647871, -0.042165, 1.585671

149504303.673931, -0.133169, -0.342695, -0.079412, 0.059555, -0.990923, 0.000000, 1.785983, -53.240135, -24.552481, -1.648299, -0.043193, 1.591183

149504303.675311, 0.010385, -0.561996, -0.040623, 0.059555, -0.990923, 0.000000, 2.054984, -53.011013, -25.056940, -1.646936, -0.043475, 1.599313

149504303.676680, 0.065668, -0.374766, -0.106901, 0.059555, -1.006406, -0.075581, 2.208575, -52.929756, -25.437181, -1.646255, -0.044834, 1.604821

149504303.678059, -0.260534, -0.150578, -0.289550, 0.059555, -1.006406, -0.075581, 2.331448, -52.864750, -25.741375, -1.649875, -0.048861, 1.607296

149504303.679446, -0.475864, -0.283747, -0.325897, 0.044666, -0.944474, -0.060465, 2.552965, -52.649483, -26.147999, -1.656250, -0.052931, 1.610782

149504303.680804, -0.716240, -0.226936, -0.372322, 0.104221, -0.898024, -0.045349, 2.730178, -52.477268, -26.473297, -1.665222, -0.058798, 1.616367

149504303.682312, -1.416291, 0.148746, -0.624304, 0.104221, -0.898024, -0.045349, 2.871948, -52.339497, -26.733536, -1.685152, -0.069274, 1.617004

149504303.684828, -1.034500, 0.155771, -0.656069, 0.059555, -1.006406, -0.302325, 3.211265, -52.066013, -27.408207, -1.714059, -0.085493, 1.614473

149504303.686265, 0.328035, -0.394008, -0.160963, 0.059555, -1.006406, -0.302325, 3.503254, -51.745186, -28.064564, -1.712894, -0.086278, 1.619088

149504303.687634, 0.652710, -0.707382, 0.144775, 0.148888, -0.944474, -0.090698, 3.736846, -51.488525, -28.589649, -1.703892, -0.084383, 1.631225

149504303.689022, 0.699441, -0.491747, 0.223882, 0.059555, -0.975440, -0.105814, 3.923719, -51.283195, -29.009718, -1.694376, -0.080046, 1.635729

149504303.690381, 0.083078, -0.339030, 0.066890, 0.059555, -0.975440, -0.105814, 3.970536, -51.180157, -29.182505, -1.693288, -0.078232, 1.638227

149504303.691757, -0.245568, -0.248317, -0.062003, 0.044666, -0.975440, -0.060465, 4.007989, -51.097725, -29.320734, -1.695615, -0.078079, 1.639073

149504303.693120, -0.775493, -0.094684, -0.183565, 0.044666, -0.975440, -0.136046, 4.140634, -50.970554, -29.687881, -1.706318, -0.079687, 1.637796

149504303.694511, -1.848784, 0.306349, -0.403782, 0.074444, -0.959957, -0.136046, 4.246749, -50.868820, -29.981598, -1.731345, -0.085700, 1.633075

149504303.695902, -1.997835, 0.394314, -0.451735, 0.074444, -1.083822, -0.362790, 4.331642, -50.399677, -30.776348, -1.761425, -0.092150, 1.626743

149504303.697296, -1.433701, 0.365908, -0.372322, 0.074444, -1.083822, -0.362790, 4.584383, -50.024361, -31.412148, -1.783253, -0.097465, 1.620545

149504303.698694, -0.107818, -0.428522, -0.164017, 0.059555, -1.052856, -0.317441, 4.786576, -49.724110, -31.920788, -1.786877, -0.097429, 1.623722

149504303.700061, 0.237321, -0.699135, -0.004276, 0.104221, -1.006406, -0.045349, 4.948330, -49.463501, -32.374348, -1.781169, -0.095685, 1.632096

149504303.701442, 0.376598, -0.555582, 0.094990, 0.104221, -1.006406, -0.045349, 5.077734, -49.255013, -32.737194, -1.773445, -0.093121, 1.638119

149504303.702802, 0.292910, -0.017410, 0.121562, 0.074444, -0.990923, -0.241860, 5.099112, -49.169857, -32.934177, -1.770244, -0.091034, 1.635660

149504303.704186, 0.271530, -0.118813, 0.238237, 0.089333, -0.944474, -0.181395, 5.116213, -49.101730, -33.091763, -1.766457, -0.087586, 1.635263

149504303.705548, 0.137445, -0.158825, 0.315206, 0.089333, -0.944474, -0.181395, 5.129895, -49.047230, -33.217831, -1.764619, -0.083153, 1.635182

149504303.706948, -0.185703, -0.037263, 0.135612, 0.059555, -0.990923, -0.272093, 4.997086, -48.942406, -33.365334, -1.768625, -0.080616, 1.632237

149504303.708328, -0.154854, -0.083994, 0.112399, 0.074444, -1.021889, -0.256976, 4.890838, -48.858543, -33.483337, -1.771746, -0.078650, 1.630890

149504303.709725, -0.123089, -0.166766, 0.087659, 0.074444, -1.021889, -0.256976, 4.764768, -48.791454, -33.577740, -1.774488, -0.076810, 1.630880

149504303.711134, 0.175929, -0.322842, 0.127671, 0.059555, -0.975440, -0.377906, 4.663911, -48.737785, -33.653259, -1.775648, -0.073518, 1.631735

149504303.712501, 0.299629, -0.581238, 0.202196, 0.044666, -0.913507, -0.317441, 4.583226, -48.694847, -33.713676, -1.774684, -0.068501, 1.635206

149504303.713902, 0.607200, -1.072679, 0.344528, 0.044666, -0.913507, -0.317441, 4.292778, -48.803356, -33.668713, -1.769801, -0.060247, 1.645376

149504303.715264, 0.641103, -0.982882, 0.394924, 0.119110, -0.836091, -0.075581, 4.060420, -48.890163, -33.632744, -1.759720, -0.054123, 1.658059

149504303.716632, 0.375988, -0.650266, 0.283136, 0.119110, -0.836091, -0.151163, 3.545951, -48.959606, -33.533997, -1.754825, -0.050478, 1.667452

149504303.717992, -0.071777, -0.287107, 0.041844, -0.000000, -0.975440, -0.151163, 3.134376, -49.015163, -33.454998, -1.755254, -0.048289, 1.666724

149504303.719382, -0.388205, -0.156687, -0.167988, 0.059555, -0.959957, -0.105814, 2.805116, -49.059608, -33.391800, -1.759184, -0.050471, 1.667649

149504303.720766, -0.647212, -0.076358, -0.290772, 0.059555, -0.959957, -0.105814, 2.664927, -49.115574, -33.387890, -1.766487, -0.054431, 1.667904

149504303.722163, -0.433409, 0.195782, -0.361938, 0.044666, -1.021889, -0.136046, 2.552775, -49.160343, -33.384762, -1.771043, -0.059667, 1.664110

149504303.723559, -0.104458, 0.299935, -0.333838, 0.059555, -1.021889, -0.347674, 2.688953, -49.114529, -33.428905, -1.774826, -0.064797, 1.659734

149504303.724927, 0.216246, 0.210443, -0.238237, 0.059555, -1.021889, -0.347674, 2.797896, -49.077877, -33.464222, -1.774256, -0.068220, 1.656301

149504303.726331, 0.488387, -0.474337, 0.052534, 0.044666, -0.990923, -0.226744, 2.843978, -49.109779, -33.399178, -1.768365, -0.065698, 1.660477

149504303.727691, 0.350026, -0.462730, 0.058338, 0.089333, -0.928990, -0.075581, 2.880843, -49.135300, -33.347145, -1.761764, -0.064362, 1.666041

149504303.729061, 0.226631, -0.216857, 0.013744, 0.089333, -0.928990, -0.075581, 2.910335, -49.155716, -33.305519, -1.756718, -0.064285, 1.668392

149504303.730425, 0.002443, 0.138666, -0.145997, 0.074444, -0.944474, -0.256976, 2.975002, -49.192459, -33.295540, -1.758186, -0.066756, 1.666316

149504303.731814, 0.018326, 0.073915, -0.212581, 0.074444, -0.990923, -0.241860, 3.026735, -49.221851, -33.287556, -1.758947, -0.069886, 1.664955

149504303.733198, 0.169515, 0.044899, -0.253204, 0.074444, -0.990923, -0.241860, 3.088658, -49.306591, -33.117901, -1.757677, -0.073406, 1.664067

149504303.734588, 0.620334, -0.120951, -0.208305, 0.104221, -0.944474, -0.256976, 3.138196, -49.374382, -32.982178, -1.750941, -0.076597, 1.667305

149504303.735983, 0.672257, -0.218690, -0.230907, 0.133999, -0.928990, -0.196511, 3.177827, -49.428616, -32.873600, -1.742527, -0.080491, 1.672952

149504303.737351, 0.588569, -0.266337, -0.302378, 0.133999, -0.928990, -0.196511, 3.291677, -49.614861, -32.576820, -1.735656, -0.085128, 1.679170

149504303.738743, 0.215025, -0.218079, -0.468839, 0.133999, -0.944474, -0.120930, 3.382757, -49.763855, -32.339397, -1.732305, -0.092029, 1.684165

149504303.740104, 0.027794, -0.030238, -0.515265, 0.133999, -0.944474, -0.120930, 3.660984, -49.781010, -32.196106, -1.731383, -0.099694, 1.686385

149504303.741474, -0.163712, 0.119119, -0.578184, 0.119110, -0.944474, -0.181395, 3.883566, -49.794735, -32.081474, -1.734127, -0.108089, 1.686346

149504303.742834, -0.727540, 0.251982, -0.568716, 0.089333, -0.990923, -0.317441, 4.061631, -49.805714, -31.989769, -1.746515, -0.115599, 1.683127

149504303.744230, -0.799317, 0.069639, -0.462120, 0.089333, -0.990923, -0.317441, 4.368374, -49.671638, -32.172970, -1.760132, -0.121295, 1.681816

149504303.745620, -0.752586, -0.028100, -0.362243, 0.119110, -1.006406, -0.181395, 4.613769, -49.564381, -32.319530, -1.770329, -0.125965, 1.682429

149504303.747013, -0.532064, 0.017715, -0.331700, 0.223331, -0.959957, -0.302325, 4.933303, -49.356125, -32.646694, -1.779484, -0.132582, 1.689372

149504303.748420, -0.377209, 0.041844, -0.428522, 0.223331, -0.959957, -0.302325, 5.188930, -49.189522, -32.908424, -1.786452, -0.140439, 1.695790

149504303.749786, -0.204640, -0.025656, -0.510989, 0.059555, -1.006406, -0.256976, 5.393432, -49.056236, -33.117809, -1.789930, -0.145317, 1.692927

149504303.751176, 0.063225, 0.131031, -0.581238, 0.238220, -0.433529, -0.559302, 5.782933, -48.867977, -33.285316, -1.791532, -0.170558, 1.736102

149504303.752536, 0.785267, 1.392467, -0.500910, 0.238220, -0.433529, -0.559302, 6.094534, -48.717369, -33.419323, -1.781168, -0.197992, 1.761587

149504303.753911, 0.236710, 1.906205, -0.688140, 0.074444, -0.944474, -0.438372, 6.816151, -48.678516, -33.386585, -1.777011, -0.208875, 1.728984

149504303.755272, -0.398284, 0.604757, -0.434631, 0.148888, -0.959957, -0.272093, 7.393444, -48.647434, -33.360394, -1.782217, -0.214936, 1.719999

149504303.756662, -0.425162, -0.051007, -0.263283, 0.148888, -0.959957, -0.272093, 7.855279, -48.622566, -33.339439, -1.789541, -0.216889, 1.719022

149504303.758059, -0.570854, -0.229380, -0.280998, 0.178665, -0.975440, -0.256976, 8.409574, -48.541447, -33.509270, -1.798965, -0.219089, 1.721461

149504303.759452, -0.778548, -0.368657, -0.265421, 0.193554, -1.006406, -0.241860, 8.853009, -48.476551, -33.645134, -1.810996, -0.220765, 1.725631

149504303.760852, -0.572686, -0.357051, -0.215330, 0.193554, -1.006406, -0.241860, 9.248831, -48.098106, -33.987064, -1.819953, -0.221742, 1.729009

149504303.762213, -0.229074, -0.293826, -0.147524, 0.223331, -0.990923, -0.256976, 9.565488, -47.795349, -34.260609, -1.824067, -0.222535, 1.732450

149504303.763580, 0.272751, -0.192117, -0.056200, 0.223331, -0.990923, -0.256976, 9.695596, -47.716408, -34.409473, -1.821024, -0.222466, 1.734032

149504303.764950, 0.552222, -0.133474, -0.039706, 0.238220, -1.006406, -0.302325, 9.799682, -47.653255, -34.528564, -1.814866, -0.222543, 1.735483

149504303.766333, 0.932180, -0.097738, -0.031460, 0.193554, -0.882541, -0.151163, 9.882951, -47.602734, -34.623837, -1.801047, -0.222517, 1.734745

149504303.767706, 0.512516, -0.061087, -0.003360, 0.193554, -0.882541, -0.151163, 10.031712, -47.684769, -34.466816, -1.793113, -0.222242, 1.733335

149504303.769103, 0.106291, -0.054062, 0.009468, 0.238220, -0.975440, -0.196511, 10.150720, -47.750397, -34.341198, -1.791353, -0.222219, 1.732942

149504303.770499, -0.030238, -0.098655, 0.002138, 0.193554, -0.928990, -0.181395, 10.184318, -47.782490, -34.240704, -1.791480, -0.221522, 1.731630

149504303.771876, -0.514043, -0.227242, -0.035736, 0.193554, -0.928990, -0.181395, 10.211196, -47.808163, -34.160309, -1.798531, -0.220960, 1.732157

149504303.773275, -0.947452, -0.300546, -0.077885, 0.119110, -0.959957, -0.317441, 10.232698, -47.828701, -34.095993, -1.813920, -0.218711, 1.729206

149504303.774639, -1.229061, -0.290161, -0.008858, 0.193554, -0.928990, -0.347674, 10.270437, -47.641048, -34.511021, -1.833463, -0.217235, 1.730935

149504303.776006, -0.882089, -0.227853, 0.064446, 0.193554, -0.928990, -0.347674, 10.300628, -47.490929, -34.843040, -1.847758, -0.215009, 1.731458

149504303.777378, -0.589180, -0.215941, 0.229685, 0.238220, -0.882541, -0.256976, 10.139953, -47.166752, -35.225277, -1.856217, -0.212006, 1.734065

149504303.778764, -0.421497, -0.238237, 0.402560, 0.104221, -0.975440, -0.302325, 10.011413, -46.907410, -35.531067, -1.862177, -0.203629, 1.728051

149504303.780149, 0.252593, -0.198226, 0.269086, 0.104221, -0.975440, -0.302325, 9.908581, -46.699936, -35.775700, -1.858888, -0.197297, 1.722298

149504303.781539, 0.491747, -0.206778, 0.242514, 0.238220, -0.944474, -0.317441, 9.682561, -46.676815, -36.018051, -1.853251, -0.194096, 1.724689

149504303.782935, 0.472810, -0.122173, 0.122173, 0.238220, -0.944474, -0.287209, 9.501745, -46.658318, -36.211933, -1.847252, -0.192886, 1.726251

149504303.784306, 0.389427, -0.103236, 0.117592, 0.163776, -0.975440, -0.287209, 9.336556, -46.745560, -36.110477, -1.842336, -0.190300, 1.723628

149504303.785701, 0.370795, -0.118508, 0.138056, 0.163776, -0.975440, -0.226744, 9.204405, -46.815353, -36.029312, -1.836563, -0.187550, 1.721301

149504303.787063, 0.249844, -0.110567, 0.110872, 0.163776, -0.975440, -0.226744, 9.098684, -46.871189, -35.964378, -1.832640, -0.185283, 1.719089

149504303.788430, 0.162185, -0.089492, 0.096822, 0.223331, -0.959957, -0.256976, 8.952498, -47.058716, -35.889107, -1.830616, -0.184436, 1.719846

149504303.789792, 0.191506, -0.072388, 0.070250, 0.148888, -0.990923, -0.302325, 8.835549, -47.208736, -35.828892, -1.828839, -0.182379, 1.716759

149504303.791207, 0.854906, -0.094684, -0.020464, 0.148888, -0.990923, -0.302325, 8.680382, -47.328751, -35.640774, -1.817927, -0.181448, 1.714548

149504303.792586, 1.216233, -0.062003, -0.040317, 0.223331, -0.851574, -0.287209, 8.556248, -47.424763, -35.490280, -1.803130, -0.183140, 1.718112

149504303.793971, 1.455081, -0.054367, -0.020159, 0.193554, -0.928990, -0.226744, 8.456941, -47.828102, -34.856758, -1.783669, -0.183567, 1.718227

149504303.795379, 1.531439, -0.062003, 0.114232, 0.193554, -0.928990, -0.226744, 8.377495, -48.150776, -34.349941, -1.763168, -0.182161, 1.718235

149504303.796747, 1.434006, -0.008552, 0.078496, 0.238220, -0.758675, -0.241860, 8.313938, -48.408913, -33.944485, -1.745896, -0.183630, 1.723696

149504303.798164, 1.332908, 0.005803, 0.082161, 0.163776, -0.898024, -0.136046, 8.283628, -48.839912, -33.176964, -1.726833, -0.182419, 1.721384

149504303.799525, 0.978606, -0.029932, 0.113010, 0.163776, -0.898024, -0.136046, 8.259381, -49.184711, -32.562950, -1.713701, -0.180783, 1.719645

149504303.800892, 0.619112, -0.036957, 0.069028, 0.193554, -0.975440, -0.060465, 8.157838, -49.623817, -31.815174, -1.703867, -0.180148, 1.718444

149504303.802256, 0.237627, -0.036652, 0.032070, 0.133999, -0.975440, -0.136046, 8.076603, -49.975105, -31.216953, -1.700800, -0.178748, 1.715295

149504303.803653, 0.423330, -0.072998, 0.042761, 0.133999, -0.975440, -0.136046, 8.011615, -50.256134, -30.738377, -1.695268, -0.177148, 1.712772

149504303.805033, 0.347888, -0.105680, 0.103542, 0.119110, -1.021889, -0.090698, 7.898015, -50.603405, -30.238895, -1.689939, -0.174421, 1.709820

149504303.806419, 0.294742, -0.167988, 0.232740, 0.119110, -1.021889, -0.090698, 7.807136, -50.881222, -29.839310, -1.685542, -0.169895, 1.707660

149504303.807818, 0.141721, -0.060170, 0.020769, 0.148888, -0.975440, -0.105814, 7.631751, -51.103474, -29.542965, -1.683578, -0.169138, 1.706182

149504303.809183, 0.129809, -0.103542, 0.146302, 0.223331, -0.990923, -0.151163, 7.491443, -51.281277, -29.305889, -1.682764, -0.168069, 1.708953

149504303.810575, 0.181732, -0.167072, 0.270002, 0.223331, -0.990923, -0.151163, 7.379197, -51.423519, -29.116230, -1.681333, -0.165213, 1.712537

149504303.811937, 0.151189, -0.085216, 0.087965, 0.119110, -0.928990, -0.090698, 7.309936, -51.578129, -28.777910, -1.679159, -0.163175, 1.710367

149504303.813311, 0.123089, -0.051924, 0.087659, 0.148888, -0.975440, -0.105814, 7.254528, -51.701817, -28.507254, -1.677578, -0.161673, 1.709028

149504303.814672, 0.077274, -0.023518, 0.047037, 0.148888, -0.975440, -0.105814, 7.189664, -51.800770, -28.360701, -1.676603, -0.160793, 1.707463

149504303.816064, 0.066584, -0.011912, 0.043371, 0.133999, -0.975440, -0.120930, 7.137774, -51.879932, -28.243458, -1.676032, -0.159661, 1.705155

149504303.817455, 0.070860, -0.002138, 0.049480, 0.133999, -0.990923, -0.120930, 7.096261, -51.943260, -28.149664, -1.675353, -0.158443, 1.702684

149504303.818843, 0.089797, -0.006109, 0.059865, 0.133999, -0.990923, -0.120930, 7.021978, -51.973515, -28.027983, -1.674442, -0.157104, 1.700375

149504303.820244, 0.151189, -0.036957, 0.070860, 0.119110, -0.975440, -0.105814, 6.962552, -51.997719, -27.930637, -1.672469, -0.155351, 1.697900

149504303.821607, 0.201586, -0.054978, 0.089797, 0.148888, -0.975440, -0.136046, 6.894475, -52.078304, -27.759464, -1.670607, -0.153956, 1.697420

149504303.822982, 0.271224, -0.089492, 0.090713, 0.148888, -0.975440, -0.136046, 6.840013, -52.142773, -27.622526, -1.667892, -0.152521, 1.697494

149504303.824343, 0.341779, -0.080329, 0.035736, 0.148888, -0.959957, -0.105814, 6.755371, -52.378021, -27.396355, -1.663744, -0.151946, 1.697584

149504303.825719, 0.278860, -0.059865, 0.052229, 0.148888, -0.990923, -0.090698, 6.687657, -52.566219, -27.215418, -1.660064, -0.151102, 1.697138

149504303.827091, 0.264199, -0.053451, 0.049175, 0.148888, -0.990923, -0.090698, 6.633486, -52.716778, -27.070669, -1.656649, -0.150326, 1.696695

149504303.828478, 0.257480, -0.036652, 0.034208, 0.163776, -0.975440, -0.090698, 6.610685, -52.755592, -26.861574, -1.653357, -0.150126, 1.696962

149504303.829871, 0.206167, -0.038485, 0.036041, 0.163776, -0.975440, -0.090698, 6.592445, -52.786644, -26.694298, -1.650820, -0.149902, 1.697286

149504303.831272, 0.204334, -0.036652, 0.038485, 0.133999, -0.959957, -0.075581, 6.516243, -52.893120, -26.513828, -1.648045, -0.149102, 1.696208

149504303.832672, 0.204029, -0.033903, 0.034514, 0.133999, -0.990923, -0.075581, 6.455282, -52.978298, -26.369453, -1.645276, -0.148292, 1.694965

149504303.834039, 0.199142, -0.043982, 0.018937, 0.133999, -0.990923, -0.075581, 6.406513, -53.046444, -26.253954, -1.642716, -0.147708, 1.693946

149504303.835419, 0.221133, -0.060781, -0.008858, 0.148888, -0.990923, -0.090698, 6.408571, -53.162182, -26.138229, -1.640235, -0.147778, 1.694061

149504303.836778, 0.248317, -0.094379, -0.060781, 0.119110, -0.975440, -0.075581, 6.410217, -53.254772, -26.045650, -1.637251, -0.147956, 1.693190

149504303.838155, 0.259923, -0.102014, -0.085216, 0.119110, -0.975440, -0.075581, 6.390997, -53.349255, -25.831644, -1.634149, -0.148464, 1.692506

149504303.839516, 0.252898, -0.088270, -0.081856, 0.148888, -0.975440, -0.060465, 6.375622, -53.424839, -25.660439, -1.630932, -0.149535, 1.693088

149504303.840918, 0.148746, 0.008247, 0.018631, 0.163776, -0.975440, -0.060465, 6.363321, -53.485310, -25.523474, -1.628905, -0.149617, 1.693032

149504303.842316, 0.094684, 0.038485, 0.069639, 0.163776, -0.975440, -0.060465, 6.353481, -53.533684, -25.483873, -1.627595, -0.149023, 1.692539

149504303.843705, 0.055283, 0.045204, 0.128893, 0.148888, -0.975440, -0.090698, 6.345609, -53.572384, -25.452194, -1.627455, -0.147335, 1.691431

149504303.845098, 0.045204, 0.033903, 0.146913, 0.133999, -0.990923, -0.045349, 6.339311, -53.542118, -25.333553, -1.626526, -0.145104, 1.689338

149504303.846464, 0.089186, 0.017410, 0.153022, 0.133999, -0.990923, -0.045349, 6.334273, -53.517906, -25.238642, -1.625077, -0.142863, 1.687524

149504303.847841, 0.120951, -0.014661, 0.079107, 0.119110, -0.990923, -0.060465, 6.330242, -53.498535, -25.162712, -1.623575, -0.141309, 1.685567

149504303.849202, 0.149051, -0.018631, 0.062308, 0.119110, -0.990923, -0.120930, 6.265409, -53.564674, -25.031996, -1.622970, -0.139953, 1.683968

149504303.850577, 0.171959, -0.033903, 0.041539, 0.119110, -0.990923, -0.090698, 6.213542, -53.617584, -24.927423, -1.621477, -0.138917, 1.682590

149504303.851940, 0.188147, -0.046731, 0.021686, 0.148888, -0.975440, -0.060465, 6.172049, -53.659912, -24.843765, -1.619275, -0.138841, 1.683006

149504303.853327, 0.190285, -0.056505, 0.007941, 0.148888, -0.975440, -0.060465, 6.138854, -53.693775, -24.776838, -1.617065, -0.138942, 1.683609

149504303.854717, 0.216552, -0.077885, -0.008247, 0.133999, -0.990923, -0.060465, 6.112298, -53.761681, -24.583353, -1.614554, -0.138903, 1.683669

149504303.856101, 0.248928, -0.110872, 0.007636, 0.104221, -0.990923, -0.060465, 6.152662, -53.816006, -24.428566, -1.611687, -0.138025, 1.682589

149504303.857495, 0.303600, -0.147524, 0.097433, 0.104221, -0.990923, -0.060465, 6.184954, -53.859467, -24.304735, -1.608171, -0.135918, 1.681970

149504303.858858, 0.194866, -0.100793, 0.090103, 0.119110, -0.975440, -0.030233, 6.067032, -53.894234, -24.112375, -1.605605, -0.134380, 1.681588

149504303.860239, 0.070555, -0.043066, 0.039095, 0.133999, -0.975440, -0.015116, 5.972695, -53.922047, -23.958487, -1.604342, -0.133883, 1.681213

149504303.861598, 0.054367, -0.020159, 0.050396, 0.133999, -0.975440, -0.015116, 5.876689, -53.964706, -23.882023, -1.603292, -0.133263, 1.680615

149504303.862989, 0.040317, -0.001527, 0.053145, 0.133999, -0.975440, -0.045349, 5.799885, -53.998833, -23.820852, -1.603022, -0.132596, 1.680044

149504303.864382, 0.040317, 0.005498, 0.051007, 0.133999, -0.990923, -0.030233, 5.738441, -54.026134, -23.771915, -1.602425, -0.131938, 1.679245

149504303.865756, 0.057116, -0.004276, 0.039401, 0.133999, -0.990923, -0.030233, 5.668750, -54.068386, -23.709444, -1.601639, -0.131454, 1.678673

149504303.867177, 0.086132, -0.013134, 0.043371, 0.133999, -0.975440, -0.045349, 5.612997, -54.102184, -23.659466, -1.600775, -0.130941, 1.678509

149504303.868554, 0.218690, -0.052229, 0.208305, 0.133999, -0.944474, -0.060465, 5.527321, -54.129223, -23.596159, -1.598583, -0.128308, 1.679270

149504303.869968, 0.293521, -0.069333, 0.335060, 0.133999, -0.944474, -0.060465, 5.458781, -54.150856, -23.545515, -1.595342, -0.123891, 1.680308

149504303.871387, 0.334449, -0.091019, 0.859487, 0.863548, -0.418046, 0.046764, 5.403949, -54.168163, -23.504999, -1.579927, -0.129653, 1.697430

149504303.872775, 0.270002, -0.548252, 3.693597, -0.031260, -0.959957, 0.062352, 4.230584, -54.263641, -23.332642, -1.575140, -0.076421, 1.697546

149504303.874190, 0.174097, 0.027794, 0.078496, -0.031260, -0.959957, 0.062352, 3.291892, -54.340023, -23.194756, -1.570988, -0.073376, 1.690826

149504303.875587, 0.214719, 0.106596, 0.053756, 0.014889, -0.975440, -0.015116, 2.561475, -54.441944, -23.014475, -1.568136, -0.071444, 1.685413

149504303.876980, 0.137139, 0.112705, 0.070555, 0.014889, -0.975440, -0.015116, 1.977141, -54.523483, -22.870251, -1.566429, -0.069321, 1.680554

149504303.878378, 0.135307, 0.120951, 0.068111, 0.044666, -0.990923, 0.000000, 1.550747, -54.649937, -22.731548, -1.564533, -0.067890, 1.677505

149504303.879740, 0.124006, 0.098349, 0.046426, 0.014889, -0.990923, -0.030233, 1.209631, -54.751099, -22.620586, -1.563461, -0.066158, 1.673715

149504303.881115, 0.070250, 0.036041, 0.023824, 0.014889, -0.990923, -0.030233, 0.936739, -54.832031, -22.531816, -1.563186, -0.064770, 1.671090

149504303.882480, 0.047037, 0.006720, 0.012828, 0.014889, -0.990923, -0.015116, 0.656816, -54.855961, -22.507448, -1.562964, -0.063583, 1.669164

149504303.883858, 0.016493, -0.018631, -0.001527, 0.029778, -0.990923, 0.000000, 0.432877, -54.875103, -22.487953, -1.562899, -0.062931, 1.668530

149504303.885222, -0.006414, -0.036652, -0.010385, 0.029778, -0.990923, 0.000000, 0.294799, -54.931232, -22.449034, -1.563162, -0.062413, 1.668273

149504303.886613, -0.015272, -0.043982, -0.013439, 0.014889, -1.006406, -0.015116, 0.184337, -54.976135, -22.417898, -1.563829, -0.061634, 1.667519

149504303.888004, -0.008552, -0.043371, -0.020464, 0.029778, -0.990923, -0.015116, 0.095967, -55.012058, -22.392990, -1.564418, -0.061280, 1.667633

149504303.889391, 0.000611, -0.028100, -0.009774, 0.029778, -0.990923, -0.015116, 0.045808, -54.999981, -22.373064, -1.564860, -0.060786, 1.667582

149504303.890787, 0.017715, -0.025656, 0.003054, 0.044666, -0.990923, -0.030233, 0.005680, -54.990318, -22.357122, -1.565371, -0.060439, 1.668410

149504303.892165, 0.033903, -0.016799, 0.027489, 0.014889, -0.959957, -0.060465, -0.026422, -54.982590, -22.321045, -1.566273, -0.059136, 1.667670

149504303.893540, 0.030543, -0.013744, 0.025045, 0.014889, -0.959957, -0.060465, -0.052104, -54.976406, -22.292183, -1.567202, -0.057895, 1.666929

149504303.894903, 0.028711, -0.007941, 0.012217, 0.029778, -0.990923, -0.015116, -0.072649, -54.971458, -22.269093, -1.567198, -0.057172, 1.666733

149504303.896286, 0.027489, -0.012828, 0.000916, 0.029778, -0.990923, -0.015116, -0.089086, -55.008316, -22.203974, -1.567208, -0.056615, 1.666629

149504303.897652, 0.017104, -0.019548, -0.012828, 0.029778, -0.990923, -0.015116, -0.102235, -55.037804, -22.151878, -1.567368, -0.056254, 1.666631

149504303.899051, -0.008552, -0.030849, -0.023518, 0.029778, -0.990923, 0.000000, -0.092218, -55.061394, -22.156849, -1.567573, -0.056053, 1.666710

149504303.900450, -0.042455, -0.069944, -0.061697, 0.029778, -0.990923, 0.000000, -0.084204, -55.080265, -22.160826, -1.568269, -0.056381, 1.667317

149504303.901828, -0.074831, -0.061697, -0.075136, 0.014889, -0.990923, -0.030233, -0.077793, -55.095364, -22.164007, -1.569965, -0.056554, 1.667124

149504303.903219, -0.100793, -0.048869, -0.078496, 0.029778, -0.990923, -0.015116, -0.093200, -55.168667, -22.189877, -1.571696, -0.057092, 1.667514

149504303.904579, -0.125838, -0.048258, -0.076358, 0.029778, -0.990923, -0.015116, -0.105526, -55.227310, -22.210573, -1.573694, -0.057566, 1.667886

149504303.905950, -0.112094, -0.050091, -0.062003, 0.059555, -0.975440, -0.015116, -0.115387, -55.110958, -22.273777, -1.575488, -0.058471, 1.669855

149504303.907326, -0.097433, -0.049175, -0.041233, 0.029778, -0.990923, -0.015116, -0.123276, -55.017876, -22.324341, -1.577049, -0.058453, 1.670202

149504303.908707, -0.035430, -0.077274, -0.009163, 0.029778, -0.990923, -0.015116, -0.129587, -54.943413, -22.364792, -1.577764, -0.058001, 1.670923

149504303.910076, -0.005803, -0.092546, 0.005192, 0.014889, -1.006406, -0.030233, -0.114099, -54.985882, -22.443800, -1.578352, -0.057046, 1.671073

149504303.911470, 0.070250, -0.211970, 0.014966, 0.014889, -0.990923, -0.030233, -0.101709, -55.019855, -22.507008, -1.577992, -0.055967, 1.672877

149504303.912862, 0.136223, -0.271530, 0.022907, 0.014889, -0.990923, -0.030233, -0.091797, -54.985809, -22.510925, -1.576783, -0.054797, 1.675442

149504303.914232, 0.145386, -0.253204, 0.002138, 0.014889, -0.990923, 0.000000, -0.083867, -54.958572, -22.514059, -1.574872, -0.053959, 1.677557

149504303.915630, 0.156992, -0.262977, -0.024435, 0.059555, -0.959957, 0.046764, -0.098060, -54.957191, -22.423271, -1.571859, -0.054429, 1.681751

149504303.916991, 0.212581, -0.194255, -0.009468, 0.059555, -0.959957, 0.046764, -0.109414, -54.956089, -22.350639, -1.568170, -0.054694, 1.684861

149504303.918365, 0.201891, -0.157909, 0.003665, 0.059555, -1.006406, 0.000000, -0.118498, -54.955204, -22.292534, -1.565619, -0.054743, 1.687706

149504303.919727, 0.261756, -0.123395, 0.031765, 0.059555, -1.006406, 0.000000, -0.166837, -54.974907, -22.222727, -1.562317, -0.054421, 1.690068

149504303.921123, 0.538783, -0.092546, 0.140804, -0.015630, -1.006406, 0.062352, -0.205508, -54.990669, -22.166880, -1.553850, -0.051179, 1.688451

149504303.922498, 0.952950, -0.102320, 0.233045, -0.031260, -1.052856, 0.171467, -0.298055, -55.186951, -21.749020, -1.538067, -0.046671, 1.686666

149504303.923881, 1.361619, -0.046731, 0.311236, -0.031260, -1.052856, 0.171467, -0.372092, -55.343975, -21.414732, -1.516977, -0.041136, 1.684332

149504303.925282, 2.139555, 0.115759, -0.071166, 0.029778, -1.161238, 0.077940, -0.431321, -55.469597, -21.147301, -1.487267, -0.041684, 1.681866

149504303.926647, 2.549141, 0.524733, -0.114232, 0.059555, -0.681260, -0.060465, -0.478705, -55.733360, -20.070368, -1.456166, -0.043885, 1.679325

149504303.928038, 1.866193, 0.023518, -0.153327, 0.059555, -0.681260, -0.060465, -0.516612, -55.944370, -19.208822, -1.434625, -0.047355, 1.683841

149504303.929397, -0.070860, -0.332922, -0.008552, 0.133999, -1.006406, 0.000000, -0.526401, -56.113178, -18.379642, -1.438236, -0.050135, 1.693971

149504303.930770, 0.083078, -0.004276, 0.006109, -0.000000, -0.990923, 0.109116, -0.534232, -56.248222, -17.716299, -1.437530, -0.049035, 1.692034

149504303.932140, 0.063530, -0.000611, 0.001833, -0.000000, -0.990923, 0.109116, -0.540497, -56.356258, -17.185623, -1.437103, -0.048009, 1.690096

149504303.933527, 0.028100, -0.011912, -0.000611, 0.044666, -0.990923, 0.093528, -0.524973, -56.503914, -16.784407, -1.437521, -0.047981, 1.690557

149504303.934911, 0.022602, -0.015577, 0.000916, 0.029778, -0.975440, 0.109116, -0.512554, -56.622036, -16.463434, -1.437658, -0.047638, 1.690281

149504303.936289, 0.027489, -0.014966, 0.001527, 0.029778, -0.975440, 0.109116, -0.543691, -56.736942, -16.160007, -1.437727, -0.047294, 1.690058

149504303.937683, 0.022602, -0.018631, 0.000916, 0.044666, -0.975440, 0.109116, -0.568600, -56.828869, -15.917266, -1.437865, -0.047283, 1.690670

149504303.939047, 0.022907, -0.014050, 0.000916, 0.044666, -0.990923, 0.109116, -0.588528, -56.902409, -15.723073, -1.438033, -0.047250, 1.691228

149504303.940425, 0.022602, -0.014966, 0.002138, 0.044666, -0.990923, 0.109116, -0.583934, -57.022465, -15.521070, -1.438199, -0.047203, 1.691815

149504303.941783, 0.019853, -0.014661, 0.000916, 0.044666, -0.975440, 0.093528, -0.580259, -57.118511, -15.359468, -1.438685, -0.047193, 1.692560

149504303.943181, 0.023213, -0.012217, 0.003054, 0.044666, -0.975440, 0.093528, -0.638928, -57.134125, -15.276834, -1.439106, -0.047152, 1.693334

149504303.944542, 0.023518, -0.015577, 0.002749, 0.029778, -0.975440, 0.062352, -0.685863, -57.146614, -15.210728, -1.440160, -0.046811, 1.693634

149504303.945939, 0.023824, -0.012217, 0.003665, 0.059555, -0.990923, 0.109116, -0.620729, -57.217831, -15.134519, -1.440254, -0.047053, 1.694978

149504303.947330, 0.024740, -0.012523, 0.001833, 0.059555, -0.990923, 0.109116, -0.568622, -57.274803, -15.073551, -1.440335, -0.047314, 1.696261

149504303.948709, 0.021075, -0.015882, -0.002138, 0.029778, -0.990923, 0.093528, -0.526936, -57.320381, -15.024777, -1.440784, -0.047016, 1.696113

149504303.950099, 0.025656, -0.014966, 0.000305, 0.044666, -0.990923, 0.093528, -0.493588, -57.254803, -15.009082, -1.441163, -0.047002, 1.696727

149504303.951461, 0.022297, -0.015577, 0.002443, 0.044666, -0.990923, 0.093528, -0.466909, -57.202339, -14.996526, -1.441586, -0.046960, 1.697312

149504303.952828, 0.023824, -0.013134, 0.003665, 0.029778, -0.975440, 0.109116, -0.507175, -57.201187, -14.893185, -1.441628, -0.046597, 1.697019

149504303.954212, 0.021380, -0.014050, 0.001833, 0.044666, -0.990923, 0.077940, -0.539388, -57.200264, -14.810513, -1.442360, -0.046579, 1.697827

149504303.955597, 0.022297, -0.014966, 0.003054, 0.044666, -0.990923, 0.077940, -0.565158, -57.199528, -14.744374, -1.443067, -0.046546, 1.698670

149504303.956965, 0.027794, -0.017715, 0.005192, 0.014889, -0.913507, 0.124704, -0.565238, -57.158119, -14.738111, -1.442528, -0.045904, 1.697649

149504303.958361, 0.023824, -0.016188, 0.004887, 0.029778, -0.975440, 0.062352, -0.565302, -57.124992, -14.733102, -1.443501, -0.045554, 1.697815

149504303.959754, 0.028100, -0.014661, 0.003665, 0.029778, -0.975440, 0.062352, -0.544817, -57.078083, -14.822390, -1.444395, -0.045225, 1.697918

149504303.961126, 0.024435, -0.018021, -0.000000, 0.029778, -0.975440, 0.109116, -0.528429, -57.040558, -14.893820, -1.444374, -0.044954, 1.697689

149504303.962521, 0.022602, -0.014355, 0.000611, 0.029778, -0.975440, 0.109116, -0.515318, -57.010536, -14.950964, -1.444371, -0.044674, 1.697402

149504303.963884, 0.024740, -0.014355, 0.004276, 0.044666, -0.975440, 0.077940, -0.545902, -57.047745, -14.926707, -1.444983, -0.044675, 1.698216

149504303.965250, 0.024129, -0.016493, 0.004887, 0.044666, -0.975440, 0.077940, -0.570370, -57.077511, -14.907302, -1.445591, -0.044671, 1.699073

149504303.966615, 0.023824, -0.015272, 0.002749, 0.044666, -0.975440, 0.077940, -0.548871, -57.040100, -14.845130, -1.446190, -0.044692, 1.699880

149504303.968004, 0.024435, -0.019242, 0.003665, 0.059555, -0.975440, 0.109116, -0.531672, -57.010170, -14.795392, -1.446126, -0.045000, 1.701193

149504303.969376, 0.022907, -0.015882, 0.003054, 0.044666, -0.975440, 0.109116, -0.517913, -56.986225, -14.755602, -1.446092, -0.044997, 1.701656

149504303.970759, 0.020769, -0.010690, -0.002443, 0.044666, -0.975440, 0.109116, -0.527442, -57.069111, -14.793741, -1.446083, -0.045059, 1.702039

149504303.972167, 0.025962, -0.013439, 0.001527, 0.029778, -0.990923, 0.109116, -0.535065, -57.135418, -14.824253, -1.446030, -0.044753, 1.701674

149504303.973532, 0.024129, -0.014050, -0.002138, 0.029778, -0.975440, 0.109116, -0.520627, -57.127239, -14.825339, -1.445979, -0.044513, 1.701314

149504303.974924, 0.016493, -0.013744, -0.008247, 0.029778, -0.975440, 0.109116, -0.509077, -57.120697, -14.826208, -1.446026, -0.044361, 1.700938

149504303.976287, 0.019548, -0.012217, -0.007330, 0.029778, -0.975440, 0.109116, -0.499837, -57.115463, -14.826903, -1.446035, -0.044194, 1.700539

149504303.977659, 0.021075, -0.010996, -0.005498, 0.044666, -0.959957, 0.124704, -0.574590, -57.213318, -14.827459, -1.445670, -0.044324, 1.700873

149504303.979020, 0.021991, -0.014661, -0.002749, 0.044666, -0.959957, 0.124704, -0.634393, -57.291599, -14.827904, -1.445303, -0.044420, 1.701307

149504303.980410, 0.021075, -0.018326, 0.000305, 0.029778, -0.990923, 0.124704, -0.579553, -57.333817, -14.804935, -1.445029, -0.044154, 1.700970

149504303.981795, 0.021686, -0.017715, -0.000000, 0.029778, -0.990923, 0.093528, -0.535681, -57.367592, -14.786561, -1.445376, -0.043893, 1.700791

149504303.983187, 0.021380, -0.010996, 0.002138, 0.029778, -0.990923, 0.093528, -0.541656, -57.333389, -14.818509, -1.445714, -0.043597, 1.700530

149504303.984582, 0.023518, -0.012828, 0.002749, 0.059555, -0.990923, 0.093528, -0.546437, -57.306026, -14.844068, -1.446010, -0.043923, 1.701901

149504303.985946, 0.024740, -0.012217, -0.002443, 0.059555, -0.990923, 0.093528, -0.550261, -57.284138, -14.864514, -1.446291, -0.044310, 1.703223

149504303.987321, 0.026878, -0.009468, 0.001527, 0.044666, -0.990923, 0.093528, -0.553320, -57.225807, -14.834224, -1.446542, -0.044321, 1.703703

149504303.988681, 0.025351, -0.007636, 0.004581, 0.044666, -0.975440, 0.093528, -0.555768, -57.179142, -14.809992, -1.446782, -0.044303, 1.704182

149504303.990061, 0.021075, -0.013439, 0.000305, 0.044666, -0.975440, 0.093528, -0.578262, -57.162220, -14.720634, -1.447073, -0.044352, 1.704759

149504303.991423, 0.021380, -0.013744, 0.003054, 0.044666, -0.975440, 0.093528, -0.596257, -57.148682, -14.649147, -1.447358, -0.044364, 1.705358

149504303.992825, 0.017104, -0.013439, 0.000305, 0.044666, -0.975440, 0.093528, -0.610654, -57.137852, -14.591958, -1.447688, -0.044412, 1.705965

149504303.994221, 0.019548, -0.014966, 0.000916, 0.044666, -0.975440, 0.093528, -0.642707, -57.108780, -14.686151, -1.447979, -0.044453, 1.706596

149504303.995599, 0.020159, -0.012828, 0.002138, 0.029778, -0.990923, 0.109116, -0.668350, -57.085522, -14.761505, -1.447974, -0.044150, 1.706260

149504303.996991, 0.018937, -0.015882, 0.001833, 0.044666, -0.959957, 0.109116, -0.627255, -57.128139, -14.798464, -1.447918, -0.044194, 1.706744

149504303.998361, 0.025351, -0.014661, 0.000916, 0.044666, -0.959957, 0.109116, -0.594379, -57.162235, -14.828032, -1.447780, -0.044247, 1.707164

149504303.999729, 0.024129, -0.015882, 0.003971, 0.029778, -0.990923, 0.093528, -0.568079, -57.189510, -14.851686, -1.448041, -0.043926, 1.706861

149504304.001103, 0.021991, -0.017410, 0.004276, 0.029778, -0.975440, 0.155879, -0.526502, -57.211330, -14.823961, -1.447035, -0.043638, 1.706194

149504304.002490, 0.020159, -0.015882, 0.003360, 0.029778, -0.975440, 0.155879, -0.493240, -57.228786, -14.801782, -1.446070, -0.043365, 1.705494

149504304.003864, 0.025656, -0.013744, 0.004581, 0.014889, -0.990923, 0.109116, -0.528240, -57.181526, -14.807362, -1.446015, -0.042748, 1.704283

149504304.005248, 0.022602, -0.013134, 0.002138, 0.014889, -0.990923, 0.109116, -0.556240, -57.143719, -14.811826, -1.445999, -0.042175, 1.703111

149504304.006649, 0.028100, -0.015272, 0.002138, 0.029778, -0.990923, 0.077940, -0.578640, -57.113472, -14.815397, -1.446547, -0.041920, 1.703008

149504304.008017, 0.019548, -0.014050, 0.002443, 0.014889, -0.975440, 0.109116, -0.596560, -57.150501, -14.818254, -1.446533, -0.041368, 1.701916

149504304.009411, 0.021686, -0.014966, 0.003054, 0.014889, -0.975440, 0.109116, -0.610896, -57.180122, -14.820540, -1.446486, -0.040820, 1.700875

149504304.010771, 0.158214, 0.110872, -0.021686, 0.044666, -0.959957, 0.062352, -0.560755, -57.163006, -14.799045, -1.445503, -0.041058, 1.700156

149504304.012143, 0.050091, 0.016799, -0.000305, 0.029778, -0.990923, 0.093528, -0.520643, -57.149311, -14.781848, -1.445441, -0.040804, 1.699510

149504304.013502, 0.021686, -0.017715, 0.001222, 0.029778, -0.990923, 0.093528, -0.488553, -57.138355, -14.768091, -1.445785, -0.040593, 1.699308

149504304.014888, 0.018937, -0.013134, -0.000305, 0.059555, -0.975440, 0.124704, -0.462882, -57.129589, -14.757086, -1.445484, -0.041016, 1.700330

149504304.016281, 0.016799, -0.015882, -0.000000, 0.014889, -0.975440, 0.124704, -0.442344, -57.122578, -14.748281, -1.445208, -0.040527, 1.699116

149504304.017676, 0.021991, -0.016493, 0.004581, 0.014889, -0.975440, 0.124704, -0.466987, -57.137379, -14.741238, -1.444868, -0.039987, 1.697964

149504304.019110, 0.021075, -0.018937, 0.004887, 0.044666, -0.990923, 0.109116, -0.486701, -57.149220, -14.735602, -1.444907, -0.040050, 1.698504

149504304.020481, 0.021686, -0.014355, 0.004887, 0.044666, -0.990923, 0.109116, -0.502472, -57.117874, -14.637798, -1.444948, -0.040106, 1.698986

149504304.021846, 0.020464, -0.014050, 0.001222, 0.044666, -0.990923, 0.109116, -0.515089, -57.092796, -14.559555, -1.445004, -0.040209, 1.699470

149504304.023206, 0.017715, -0.014966, 0.003054, 0.044666, -0.990923, 0.109116, -0.525183, -57.072735, -14.496961, -1.445098, -0.040287, 1.699977

149504304.024619, 0.022602, -0.014661, 0.002443, 0.059555, -0.975440, 0.109116, -0.553794, -57.077095, -14.540181, -1.445068, -0.040693, 1.701294

149504304.025989, 0.025656, -0.016493, 0.001527, 0.059555, -0.975440, 0.109116, -0.576683, -57.080582, -14.574758, -1.445008, -0.041107, 1.702617

149504304.027396, 0.018631, -0.015577, -0.000000, 0.029778, -0.990923, 0.093528, -0.533385, -57.062962, -14.602419, -1.445391, -0.040903, 1.702391

149504304.028816, 0.018326, -0.011606, 0.000305, 0.029778, -0.990923, 0.093528, -0.498747, -57.048866, -14.624548, -1.445767, -0.040692, 1.702079

149504304.030181, 0.015272, -0.013439, -0.000000, 0.029778, -0.990923, 0.109116, -0.471037, -57.037590, -14.642251, -1.445873, -0.040493, 1.701661

149504304.031581, 0.021686, -0.012828, 0.002138, 0.029778, -0.975440, 0.109116, -0.448868, -57.069386, -14.586441, -1.445851, -0.040278, 1.701251

149504304.032942, 0.026267, -0.017410, 0.003054, 0.029778, -0.975440, 0.109116, -0.431133, -57.094822, -14.541793, -1.445778, -0.040064, 1.700894

149504304.034323, 0.029016, -0.016188, 0.003360, 0.014889, -0.959957, 0.124704, -0.458018, -57.115173, -14.529399, -1.445294, -0.039555, 1.699707

149504304.035682, 0.071471, 0.036652, -0.005192, 0.029778, -0.975440, 0.109116, -0.479526, -57.131454, -14.519484, -1.444602, -0.039375, 1.698701

149504304.037103, 0.038790, 0.000916, -0.002749, 0.029778, -0.975440, 0.109116, -0.496732, -57.144478, -14.511551, -1.444355, -0.039226, 1.698208

149504304.038507, 0.023213, -0.018021, 0.003665, 0.044666, -0.975440, 0.109116, -0.531034, -57.297752, -14.551853, -1.444345, -0.039335, 1.698814

149504304.039888, 0.016188, -0.016493, -0.000305, 0.014889, -0.975440, 0.109116, -0.558475, -57.420372, -14.584095, -1.444421, -0.038875, 1.697817

149504304.041296, 0.015882, -0.014661, 0.001527, 0.014889, -0.975440, 0.109116, -0.580428, -57.436836, -14.586564, -1.444496, -0.038397, 1.696843

149504304.042658, 0.019242, -0.016493, 0.003665, 0.014889, -0.990923, 0.093528, -0.597990, -57.450008, -14.588540, -1.444879, -0.037890, 1.695990

149504304.044025, 0.017715, -0.016188, 0.003971, 0.044666, -0.975440, 0.124704, -0.612040, -57.378914, -14.520148, -1.444624, -0.038015, 1.696558

149504304.045384, 0.021991, -0.015882, 0.001833, 0.044666, -0.975440, 0.124704, -0.623280, -57.322037, -14.465435, -1.444319, -0.038164, 1.697121

149504304.046796, 0.023213, -0.018326, 0.001222, 0.044666, -0.990923, 0.093528, -0.632272, -57.276535, -14.421664, -1.444652, -0.038323, 1.697989

149504304.048174, 0.020159, -0.016493, 0.002443, 0.029778, -0.990923, 0.109116, -0.618929, -57.260544, -14.433296, -1.444717, -0.038146, 1.697866

149504304.049584, 0.019548, -0.018326, 0.000305, 0.029778, -0.990923, 0.109116, -0.608255, -57.247749, -14.442601, -1.444783, -0.038005, 1.697761

149504304.050991, 0.024129, -0.016493, 0.002138, 0.014889, -0.990923, 0.109116, -0.538106, -57.217106, -14.450046, -1.444772, -0.037533, 1.696775

149504304.052365, 0.023824, -0.018021, 0.000611, 0.014889, -0.990923, 0.109116, -0.481987, -57.192593, -14.456001, -1.444773, -0.037093, 1.695766

149504304.053777, 0.021991, -0.015577, 0.000611, 0.059555, -0.990923, 0.062352, -0.437092, -57.172981, -14.460766, -1.445721, -0.037619, 1.697621

149504304.055141, 0.015577, -0.012828, 0.002138, 0.029778, -0.975440, 0.109116, -0.380640, -57.177700, -14.534549, -1.445790, -0.037463, 1.697228

149504304.056520, 0.014355, -0.013134, 0.001222, 0.029778, -0.975440, 0.109116, -0.335478, -57.181477, -14.593575, -1.445873, -0.037322, 1.696799

149504304.057878, 0.017410, -0.017410, 0.003971, 0.044666, -0.990923, 0.109116, -0.340422, -57.184498, -14.547501, -1.445954, -0.037448, 1.697214

149504304.059291, 0.020159, -0.010079, 0.000611, 0.044666, -0.959957, 0.093528, -0.344376, -57.186913, -14.510641, -1.446233, -0.037639, 1.697716

149504304.060698, 0.019548, -0.013134, -0.000916, 0.044666, -0.959957, 0.093528, -0.347540, -57.188847, -14.481153, -1.446517, -0.037852, 1.698254

149504304.062066, 0.018937, -0.012828, 0.001222, -0.000000, -0.990923, 0.124704, -0.350071, -57.272022, -14.434239, -1.446210, -0.037101, 1.696202

149504304.063489, 0.024129, -0.010996, 0.000916, 0.044666, -0.990923, 0.093528, -0.352095, -57.338566, -14.396708, -1.446488, -0.037268, 1.696716

149504304.064850, 0.026878, -0.015272, 0.000305, 0.044666, -0.990923, 0.093528, -0.394788, -57.330574, -14.366682, -1.446739, -0.037446, 1.697315

149504304.066215, 0.020159, -0.015272, -0.002443, 0.044666, -0.990923, 0.109116, -0.428942, -57.324181, -14.342662, -1.446763, -0.037653, 1.697797

149504304.067575, 0.023213, -0.017410, -0.001833, 0.029778, -0.990923, 0.077940, -0.456265, -57.278252, -14.323446, -1.447372, -0.037545, 1.697750

149504304.068981, 0.021075, -0.016799, 0.001527, 0.029778, -0.990923, 0.077940, -0.437051, -57.241508, -14.378045, -1.447988, -0.037394, 1.697681

149504304.070358, 0.021686, -0.017715, 0.002138, 0.044666, -0.975440, 0.109116, -0.421679, -57.212112, -14.421724, -1.447932, -0.037558, 1.698200

149504304.071751, 0.022602, -0.014355, 0.002749, 0.044666, -0.975440, 0.093528, -0.470991, -57.188595, -14.479992, -1.448174, -0.037711, 1.698845

149504304.073175, 0.021686, -0.017104, 0.001527, 0.044666, -0.975440, 0.093528, -0.510441, -57.169781, -14.526606, -1.448419, -0.037882, 1.699549

149504304.074542, 0.018631, -0.012523, -0.000000, 0.044666, -0.990923, 0.124704, -0.480392, -57.175140, -14.517249, -1.448119, -0.038038, 1.699848

149504304.075921, 0.018021, -0.018326, -0.001222, 0.044666, -0.990923, 0.109116, -0.456352, -57.179428, -14.509764, -1.448144, -0.038221, 1.700324

149504304.077282, 0.020464, -0.014661, 0.002749, 0.029778, -0.990923, 0.109116, -0.437121, -57.182858, -14.503776, -1.448136, -0.038038, 1.699944

149504304.078673, 0.019242, -0.014050, 0.000916, 0.029778, -0.975440, 0.093528, -0.401199, -57.185600, -14.475661, -1.448420, -0.037889, 1.699649

149504304.080036, 0.020769, -0.014050, 0.001833, 0.029778, -0.975440, 0.093528, -0.372462, -57.187794, -14.453170, -1.448684, -0.037731, 1.699332

149504304.081445, 0.019853, -0.014050, 0.000305, 0.029778, -0.990923, 0.093528, -0.431617, -57.209957, -14.435176, -1.448975, -0.037587, 1.699069

149504304.082854, 0.017715, -0.017104, 0.003054, 0.044666, -0.990923, 0.109116, -0.478942, -57.227688, -14.420781, -1.448982, -0.037719, 1.699591

149504304.084217, 0.021380, -0.014661, 0.002443, 0.044666, -0.990923, 0.109116, -0.516801, -57.241871, -14.409266, -1.448945, -0.037854, 1.700100

149504304.085632, 0.017410, -0.011606, -0.001222, 0.044666, -0.975440, 0.124704, -0.485480, -57.314442, -14.446701, -1.448603, -0.038041, 1.700416

149504304.086992, 0.016799, -0.014661, -0.003665, 0.014889, -0.990923, 0.109116, -0.460423, -57.372501, -14.476649, -1.448621, -0.037642, 1.699259

149504304.088362, 0.022907, -0.015272, -0.000611, 0.014889, -0.990923, 0.109116, -0.501986, -57.337315, -14.500607, -1.448557, -0.037213, 1.698178

149504304.089720, 0.023213, -0.018021, -0.000305, 0.029778, -0.975440, 0.109116, -0.535237, -57.309166, -14.519774, -1.448472, -0.037107, 1.697989

149504304.091141, 0.019853, -0.018021, -0.000611, 0.044666, -0.990923, 0.093528, -0.561837, -57.286648, -14.535108, -1.448767, -0.037308, 1.698746

149504304.092525, 0.022297, -0.012217, 0.004276, 0.044666, -0.990923, 0.093528, -0.583118, -57.248226, -14.500727, -1.449028, -0.037428, 1.699437

149504304.093945, 0.020464, -0.013439, 0.002138, 0.029778, -0.990923, 0.109116, -0.600142, -57.217487, -14.473222, -1.448990, -0.037268, 1.699226

149504304.095358, 0.019242, -0.014661, 0.000305, 0.044666, -0.975440, 0.109116, -0.552152, -57.233711, -14.474542, -1.448938, -0.037454, 1.699791

149504304.096726, 0.019853, -0.014661, 0.001527, 0.044666, -0.975440, 0.109116, -0.513761, -57.246693, -14.475597, -1.448887, -0.037620, 1.700304

149504304.098144, 0.022297, -0.013744, 0.001833, 0.029778, -0.990923, 0.124704, -0.503584, -57.216259, -14.499766, -1.448517, -0.037462, 1.699889

149504304.099505, 0.021991, -0.015882, 0.000305, 0.014889, -0.990923, 0.109116, -0.495442, -57.191914, -14.519101, -1.448469, -0.037025, 1.698795

149504304.100895, 0.024740, -0.017715, 0.003665, 0.014889, -0.990923, 0.109116, -0.488929, -57.172436, -14.534570, -1.448380, -0.036555, 1.697751

149504304.102263, 0.019548, -0.017410, 0.000916, 0.029778, -0.975440, 0.124704, -0.524791, -57.218079, -14.500297, -1.448030, -0.036447, 1.697459

149504304.103679, 0.021991, -0.015882, 0.001527, 0.029778, -0.975440, 0.124704, -0.553481, -57.254593, -14.472878, -1.447644, -0.036330, 1.697191

149504304.105092, 0.018631, -0.014050, -0.000000, 0.029778, -0.975440, 0.062352, -0.555896, -57.242989, -14.450942, -1.448579, -0.036236, 1.697356

149504304.106485, 0.016493, -0.011606, 0.000305, 0.044666, -0.975440, 0.109116, -0.557828, -57.233707, -14.433394, -1.448574, -0.036438, 1.697925

149504304.107913, 0.021686, -0.013744, 0.003360, 0.044666, -0.975440, 0.109116, -0.559374, -57.226280, -14.419356, -1.448493, -0.036598, 1.698525

149504304.109279, 0.022297, -0.015577, 0.003665, 0.029778, -0.975440, 0.124704, -0.499002, -57.240746, -14.431450, -1.448103, -0.036450, 1.698181

149504304.110654, 0.017104, -0.018021, 0.002749, 0.029778, -0.990923, 0.093528, -0.450704, -57.252319, -14.441124, -1.448452, -0.036306, 1.698013

149504304.112011, 0.021075, -0.013439, 0.000611, 0.029778, -0.990923, 0.093528, -0.473675, -57.241169, -14.402216, -1.448742, -0.036186, 1.697808

149504304.113405, 0.022297, -0.015882, -0.001833, 0.029778, -0.975440, 0.093528, -0.492051, -57.232250, -14.371089, -1.448973, -0.036117, 1.697679

149504304.114776, 0.019242, -0.015577, 0.002138, 0.029778, -0.990923, 0.124704, -0.506752, -57.225117, -14.346188, -1.448653, -0.035988, 1.697353

149504304.116189, 0.018326, -0.014661, 0.003360, 0.029778, -0.990923, 0.124704, -0.477441, -57.321449, -14.326266, -1.448345, -0.035844, 1.697006

149504304.117610, 0.022297, -0.013134, 0.003054, 0.029778, -0.990923, 0.093528, -0.453992, -57.398514, -14.310329, -1.448607, -0.035700, 1.696823

149504304.118977, 0.021380, -0.014050, 0.002749, 0.044666, -0.990923, 0.109116, -0.435232, -57.378532, -14.344228, -1.448576, -0.035870, 1.697315

149504304.120389, 0.018326, -0.015272, -0.001222, 0.044666, -0.990923, 0.109116, -0.420225, -57.362549, -14.371346, -1.448579, -0.036092, 1.697794

149504304.121749, 0.022602, -0.016188, 0.002749, 0.029778, -0.975440, 0.109116, -0.367146, -57.308945, -14.369718, -1.448501, -0.035964, 1.697448

149504304.123127, 0.022297, -0.016188, 0.003665, 0.029778, -0.990923, 0.093528, -0.324683, -57.266064, -14.368415, -1.448770, -0.035813, 1.697154

149504304.124482, 0.023213, -0.012217, 0.003971, 0.029778, -0.990923, 0.093528, -0.290712, -57.231758, -14.367373, -1.449025, -0.035655, 1.696775

149504304.125887, 0.022907, -0.014050, 0.003054, 0.074444, -0.959957, 0.093528, -0.284072, -57.224720, -14.366538, -1.449168, -0.036488, 1.698956

149504304.127286, 0.016799, -0.016799, 0.000916, 0.029778, -0.975440, 0.140292, -0.278760, -57.219090, -14.365870, -1.448519, -0.036386, 1.698341

149504304.128681, 0.022602, -0.018021, 0.001222, 0.029778, -0.975440, 0.140292, -0.274511, -57.234993, -14.411984, -1.447805, -0.036284, 1.697748

149504304.130087, 0.020464, -0.011301, 0.004887, 0.029778, -0.975440, 0.109116, -0.271111, -57.247715, -14.448876, -1.447759, -0.036114, 1.697247

149504304.131449, 0.019242, -0.017715, 0.004887, 0.029778, -0.975440, 0.109116, -0.268392, -57.257893, -14.478390, -1.447742, -0.035958, 1.696830

149504304.132813, 0.018326, -0.013134, 0.003360, 0.014889, -0.975440, 0.093528, -0.307288, -57.245628, -14.478676, -1.448039, -0.035502, 1.695652

149504304.134177, 0.013744, -0.014355, 0.002138, 0.059555, -0.975440, 0.093528, -0.338406, -57.235817, -14.478905, -1.448390, -0.036017, 1.697033

149504304.135581, 0.018937, -0.015577, 0.001833, 0.059555, -0.975440, 0.093528, -0.363300, -57.207561, -14.502412, -1.448659, -0.036527, 1.698427

149504304.136950, 0.018326, -0.016188, 0.000916, 0.029778, -0.990923, 0.124704, -0.383215, -57.184956, -14.521218, -1.448358, -0.036408, 1.697961

149504304.138357, 0.020769, -0.016188, 0.001527, 0.029778, -0.990923, 0.109116, -0.399147, -57.166870, -14.536263, -1.448333, -0.036280, 1.697614

149504304.139755, 0.018631, -0.012523, 0.003360, 0.029778, -0.990923, 0.109116, -0.411893, -57.213627, -14.524975, -1.448338, -0.036123, 1.697241

149504304.141123, 0.017715, -0.014050, 0.000916, 0.029778, -0.990923, 0.093528, -0.422090, -57.251030, -14.515944, -1.448673, -0.036004, 1.696998

149504304.142537, 0.022907, -0.013439, 0.002138, 0.029778, -0.990923, 0.093528, -0.409710, -57.280952, -14.578692, -1.448922, -0.035869, 1.696741

149504304.143896, 0.020159, -0.015577, 0.002443, 0.029778, -0.990923, 0.093528, -0.399807, -57.304893, -14.628890, -1.449215, -0.035736, 1.696497

149504304.145276, 0.016799, -0.015882, 0.002443, 0.014889, -0.990923, 0.124704, -0.391885, -57.324043, -14.669048, -1.448909, -0.035315, 1.695314

149504304.146636, 0.021686, -0.016493, 0.005498, 0.029778, -1.006406, 0.124704, -0.385547, -57.339363, -14.701175, -1.448598, -0.035151, 1.694896

149504304.148063, 0.017410, -0.013134, 0.003054, 0.029778, -1.006406, 0.124704, -0.380476, -57.351620, -14.726876, -1.448337, -0.035015, 1.694441

149504304.149462, 0.018631, -0.014050, 0.003665, 0.014889, -0.975440, 0.109116, -0.417492, -57.300201, -14.607493, -1.448298, -0.034585, 1.693369

149504304.150830, 0.023213, -0.014355, 0.003360, 0.014889, -0.990923, 0.093528, -0.447105, -57.259068, -14.511987, -1.448550, -0.034155, 1.692408

149504304.152244, 0.022602, -0.014050, 0.006109, 0.014889, -0.990923, 0.093528, -0.470796, -57.226162, -14.482230, -1.448796, -0.033695, 1.691499

149504304.153604, 0.019853, -0.014355, 0.003360, 0.029778, -0.990923, 0.093528, -0.489748, -57.199837, -14.458425, -1.449096, -0.033595, 1.691449

149504304.154969, 0.017410, -0.013744, -0.000611, 0.029778, -0.990923, 0.093528, -0.504910, -57.178776, -14.439380, -1.449420, -0.033548, 1.691404

149504304.156327, 0.020159, -0.014355, -0.000305, 0.029778, -0.975440, 0.109116, -0.517040, -57.202744, -14.470792, -1.449357, -0.033510, 1.691287

149504304.157728, 0.018937, -0.014966, 0.001833, 0.029778, -0.975440, 0.093528, -0.526743, -57.221916, -14.495922, -1.449621, -0.033445, 1.691303

149504304.159115, 0.019242, -0.013439, -0.000305, 0.029778, -0.975440, 0.093528, -0.534506, -57.196438, -14.446054, -1.449877, -0.033407, 1.691305

149504304.160511, 0.020769, -0.012523, 0.004887, 0.029778, -0.975440, 0.093528, -0.540716, -57.176056, -14.406160, -1.450105, -0.033299, 1.691315

149504304.161923, 0.019853, -0.012217, 0.002443, 0.029778, -0.975440, 0.109116, -0.545685, -57.159752, -14.374245, -1.450021, -0.033225, 1.691219

149504304.163297, 0.022297, -0.017410, 0.001833, 0.029778, -0.975440, 0.109116, -0.488050, -57.207932, -14.395360, -1.449916, -0.033169, 1.691133

149504304.164673, 0.018326, -0.015577, 0.000916, 0.014889, -0.959957, 0.109116, -0.441943, -57.246475, -14.412252, -1.449820, -0.032823, 1.690181

149504304.166032, 0.017104, -0.013744, 0.000916, 0.044666, -1.006406, 0.109116, -0.405057, -57.195679, -14.472414, -1.449855, -0.033060, 1.690723

149504304.167425, 0.017715, -0.014966, 0.000916, 0.044666, -1.006406, 0.109116, -0.375548, -57.155041, -14.520544, -1.449878, -0.033295, 1.691240

149504304.168788, 0.017410, -0.016799, 0.001833, 0.029778, -0.975440, 0.093528, -0.351941, -57.122532, -14.559048, -1.450158, -0.033235, 1.691094

149504304.170210, 0.018631, -0.018631, 0.001833, 0.044666, -0.990923, 0.093528, -0.374128, -57.157749, -14.519878, -1.450435, -0.033479, 1.691814

149504304.171623, 0.019242, -0.017104, 0.001222, 0.044666, -0.990923, 0.093528, -0.391877, -57.185921, -14.488544, -1.450699, -0.033724, 1.692520

149504304.172991, 0.016799, -0.013439, 0.000305, 0.044666, -0.990923, 0.093528, -0.447150, -57.249275, -14.510123, -1.450997, -0.033970, 1.693207

149504304.174405, 0.019242, -0.014050, 0.001527, 0.029778, -0.959957, 0.124704, -0.491368, -57.299957, -14.527387, -1.450549, -0.033910, 1.692950

149504304.175765, 0.018937, -0.015577, 0.003054, 0.029778, -0.959957, 0.124704, -0.485669, -57.299686, -14.517874, -1.450124, -0.033834, 1.692708

149504304.177142, 0.020464, -0.016799, 0.001833, 0.029778, -0.990923, 0.109116, -0.481111, -57.299473, -14.510263, -1.450075, -0.033755, 1.692554

149504304.178499, 0.023824, -0.016188, 0.000611, 0.029778, -0.990923, 0.109116, -0.477464, -57.299301, -14.504175, -1.449985, -0.033693, 1.692386

149504304.179901, 0.023824, -0.015882, 0.003665, 0.044666, -0.990923, 0.077940, -0.412937, -57.299164, -14.452657, -1.450508, -0.033907, 1.693244

149504304.181300, 0.022907, -0.014661, 0.003665, 0.029778, -0.990923, 0.093528, -0.361316, -57.299053, -14.411442, -1.450724, -0.033796, 1.693049

149504304.182698, 0.015882, -0.014050, 0.003360, 0.029778, -0.990923, 0.093528, -0.402164, -57.298965, -14.495090, -1.451032, -0.033690, 1.692880

149504304.184101, 0.020769, -0.014050, -0.001833, 0.014889, -0.975440, 0.109116, -0.434843, -57.298893, -14.562008, -1.450909, -0.033363, 1.691850

149504304.185466, 0.018326, -0.014050, -0.000000, 0.029778, -0.975440, 0.124704, -0.460986, -57.298836, -14.615542, -1.450523, -0.033325, 1.691562

149504304.186830, 0.018937, -0.015272, 0.001527, 0.029778, -0.975440, 0.124704, -0.461364, -57.257977, -14.588398, -1.450139, -0.033270, 1.691300

149504304.188198, 0.018937, -0.013744, 0.003971, 0.029778, -0.990923, 0.124704, -0.461666, -57.225288, -14.566683, -1.449800, -0.033171, 1.691018

149504304.189604, 0.020769, -0.018326, 0.003665, 0.014889, -0.990923, 0.124704, -0.318154, -57.219547, -14.502663, -1.449426, -0.032789, 1.689924

149504304.190973, 0.018326, -0.015882, 0.003971, 0.014889, -0.990923, 0.124704, -0.203344, -57.214954, -14.451447, -1.449099, -0.032407, 1.688710

149504304.192388, 0.020464, -0.014355, 0.003971, 0.014889, -0.975440, 0.109116, -0.111496, -57.211277, -14.410474, -1.449015, -0.032025, 1.687476

149504304.193792, 0.018631, -0.016493, 0.002138, 0.044666, -0.975440, 0.109116, -0.222844, -57.147110, -14.424343, -1.448972, -0.032294, 1.687995

149504304.195168, 0.022602, -0.019548, 0.001222, 0.044666, -0.975440, 0.109116, -0.311923, -57.095779, -14.435439, -1.448882, -0.032575, 1.688620

149504304.196564, 0.026878, -0.017104, 0.003360, 0.014889, -0.975440, 0.124704, -0.342114, -57.177162, -14.420992, -1.448406, -0.032212, 1.687588

149504304.197924, 0.023213, -0.016493, 0.003360, 0.029778, -0.975440, 0.109116, -0.366266, -57.242268, -14.409434, -1.448323, -0.032155, 1.687445

149504304.199311, 0.020464, -0.015577, 0.002443, 0.029778, -0.975440, 0.109116, -0.385588, -57.294353, -14.400187, -1.448273, -0.032109, 1.687316

149504304.200672, 0.021380, -0.019548, 0.001222, 0.029778, -0.990923, 0.093528, -0.401046, -57.254391, -14.369467, -1.448565, -0.032078, 1.687337

149504304.202072, 0.019853, -0.017104, 0.003665, 0.029778, -0.990923, 0.155879, -0.413412, -57.222420, -14.344890, -1.447623, -0.032018, 1.686996

149504304.203459, 0.022602, -0.019242, 0.003665, 0.029778, -0.975440, 0.155879, -0.402768, -57.196842, -14.348552, -1.446618, -0.031973, 1.686688

149504304.204826, 0.016799, -0.015882, 0.001527, 0.014889, -0.975440, 0.124704, -0.394253, -57.176380, -14.351481, -1.446331, -0.031644, 1.685723

149504304.206261, 0.018631, -0.012828, 0.000305, 0.014889, -0.975440, 0.124704, -0.469587, -57.241642, -14.283854, -1.446012, -0.031333, 1.684817

149504304.207624, 0.014966, -0.014966, 0.000916, 0.014889, -0.990923, 0.109116, -0.529854, -57.293854, -14.229752, -1.446113, -0.031011, 1.684066

149504304.208989, 0.016493, -0.015577, 0.003665, 0.029778, -0.975440, 0.109116, -0.578067, -57.335621, -14.186470, -1.446164, -0.030974, 1.684211

149504304.210351, 0.022602, -0.014050, 0.005192, 0.029778, -0.975440, 0.109116, -0.575565, -57.287403, -14.221816, -1.446133, -0.030915, 1.684327

149504304.211764, 0.018021, -0.014966, -0.000000, 0.044666, -0.990923, 0.109116, -0.573564, -57.248829, -14.250093, -1.446185, -0.031223, 1.685224

149504304.213142, 0.019853, -0.012523, 0.003360, 0.044666, -0.990923, 0.093528, -0.530890, -57.258785, -14.249392, -1.446527, -0.031483, 1.686173

149504304.214564, 0.022602, -0.013439, 0.001833, 0.044666, -0.990923, 0.093528, -0.496751, -57.266750, -14.248830, -1.446816, -0.031759, 1.687086

149504304.215970, 0.021991, -0.015272, 0.000305, 0.029778, -0.975440, 0.109116, -0.469440, -57.273121, -14.248381, -1.446771, -0.031751, 1.687054

149504304.217336, 0.019242, -0.012828, 0.000611, 0.029778, -0.975440, 0.124704, -0.468127, -57.237404, -14.294669, -1.446456, -0.031735, 1.686882

149504304.218751, 0.015577, -0.014661, 0.000916, 0.029778, -0.975440, 0.124704, -0.467077, -57.208828, -14.331699, -1.446190, -0.031719, 1.686741

149504304.220116, 0.013134, -0.014966, 0.003665, 0.014889, -0.975440, 0.109116, -0.507309, -57.206379, -14.314676, -1.446276, -0.031358, 1.685935

149504304.221496, 0.018937, -0.014355, 0.003054, 0.044666, -0.975440, 0.093528, -0.539495, -57.204418, -14.301058, -1.446599, -0.031636, 1.686918

149504304.222854, 0.021380, -0.015882, -0.000000, 0.044666, -0.975440, 0.093528, -0.565244, -57.202850, -14.290163, -1.446888, -0.031951, 1.687920

149504304.224261, 0.014966, -0.018326, 0.001527, 0.059555, -0.990923, 0.109116, -0.524234, -57.181187, -14.351418, -1.446956, -0.032525, 1.689506

149504304.225657, 0.018631, -0.010996, 0.001222, 0.044666, -0.975440, 0.109116, -0.491426, -57.163857, -14.400423, -1.446951, -0.032789, 1.690165

149504304.227037, 0.018021, -0.012523, 0.002443, 0.044666, -0.975440, 0.109116, -0.485716, -57.170399, -14.392979, -1.446959, -0.033034, 1.690828

149504304.228447, 0.024435, -0.013439, 0.003665, 0.029778, -0.975440, 0.093528, -0.481148, -57.175632, -14.387023, -1.447192, -0.032951, 1.690802

149504304.229809, 0.023824, -0.017715, 0.003054, 0.029778, -0.975440, 0.093528, -0.477494, -57.302269, -14.358934, -1.447442, -0.032885, 1.690828

149504304.231177, 0.020769, -0.013134, 0.001222, 0.044666, -1.006406, 0.124704, -0.515643, -57.403580, -14.336464, -1.447169, -0.033113, 1.691353

149504304.232537, 0.018326, -0.015272, 0.000305, 0.029778, -0.975440, 0.140292, -0.546162, -57.484627, -14.318487, -1.446547, -0.033080, 1.691108

149504304.233941, 0.020464, -0.011912, 0.002138, 0.029778, -0.975440, 0.140292, -0.508968, -57.427017, -14.327430, -1.445898, -0.033018, 1.690798

149504304.235309, 0.021075, -0.010385, 0.002138, 0.044666, -0.990923, 0.124704, -0.479214, -57.380928, -14.334584, -1.445613, -0.033241, 1.691274

149504304.236722, 0.018326, -0.014355, 0.001833, 0.014889, -0.990923, 0.093528, -0.455410, -57.405281, -14.363632, -1.445977, -0.032858, 1.690378

149504304.238124, 0.019242, -0.013744, 0.002138, 0.014889, -0.990923, 0.093528, -0.436367, -57.424763, -14.386870, -1.446324, -0.032477, 1.689471

149504304.239491, 0.024435, -0.016799, 0.001222, 0.029778, -0.990923, 0.109116, -0.421132, -57.440350, -14.405460, -1.446299, -0.032434, 1.689334

149504304.240889, 0.020769, -0.013744, 0.002138, 0.059555, -0.990923, 0.109116, -0.408945, -57.391594, -14.420333, -1.446301, -0.032982, 1.690716

149504304.242250, 0.018326, -0.014050, 0.003971, 0.059555, -0.990923, 0.109116, -0.399195, -57.352589, -14.432231, -1.446344, -0.033495, 1.692059

149504304.243628, 0.018326, -0.012217, 0.002138, 0.044666, -0.990923, 0.109116, -0.411931, -57.321384, -14.441750, -1.446396, -0.033715, 1.692584

149504304.244986, 0.021686, -0.015882, 0.003971, 0.029778, -0.975440, 0.124704, -0.422120, -57.296421, -14.449364, -1.446058, -0.033620, 1.692291

149504304.246391, 0.019548, -0.015577, 0.000305, 0.029778, -0.975440, 0.124704, -0.430271, -57.276451, -14.455456, -1.445747, -0.033576, 1.692008

149504304.247797, 0.018631, -0.012217, 0.004276, 0.029778, -0.990923, 0.109116, -0.457328, -57.240067, -14.437005, -1.445803, -0.033462, 1.691797

149504304.249191, 0.020159, -0.016188, 0.003971, 0.044666, -0.990923, 0.124704, -0.478974, -57.210960, -14.422244, -1.445529, -0.033660, 1.692322

149504304.250589, 0.021686, -0.014661, 0.004276, 0.044666, -0.990923, 0.124704, -0.434682, -57.208084, -14.457084, -1.445240, -0.033848, 1.692771

149504304.251950, 0.016493, -0.015882, -0.000305, 0.029778, -0.975440, 0.093528, -0.399248, -57.205784, -14.484956, -1.445625, -0.033803, 1.692634

149504304.253312, 0.019853, -0.012828, 0.000305, 0.029778, -0.975440, 0.093528, -0.370901, -57.203941, -14.507253, -1.445957, -0.033747, 1.692430

149504304.254669, 0.022907, -0.016493, 0.002749, 0.059555, -0.959957, 0.124704, -0.409832, -57.324917, -14.525090, -1.445559, -0.034290, 1.693660

149504304.256080, 0.022297, -0.014966, 0.003054, 0.014889, -0.975440, 0.093528, -0.440977, -57.421696, -14.539361, -1.445840, -0.033875, 1.692709

149504304.257460, 0.020769, -0.015272, 0.001833, 0.014889, -0.975440, 0.093528, -0.404284, -57.335854, -14.457481, -1.446143, -0.033485, 1.691741

149504304.258869, 0.023518, -0.015882, 0.002749, 0.044666, -0.975440, 0.109116, -0.374930, -57.267181, -14.391977, -1.446089, -0.033717, 1.692321

149504304.260287, 0.023824, -0.014966, 0.002443, 0.014889, -0.990923, 0.109116, -0.454128, -57.273468, -14.409546, -1.446054, -0.033325, 1.691346

149504304.261654, 0.023518, -0.013439, 0.000611, 0.014889, -0.990923, 0.109116, -0.517487, -57.278496, -14.423601, -1.446037, -0.032963, 1.690420

149504304.263060, 0.021075, -0.015272, 0.002443, 0.014889, -0.990923, 0.109116, -0.568174, -57.282520, -14.434845, -1.446046, -0.032587, 1.689593

