Using settings file RTIMULib.ini
IMU Name: L3GD20 + LSM303DLHC
IMU Init Succeeded
Recommended Poll Interval: 10mS

Time, gyroX, gyroY, gyroZ, accelX, accelY, accelZ, magX, magY, magZ, phi, theta, psi

149504325.115255, 0.016799, -0.016493, 0.000305, -0.000000, 0.031033, 0.982041, -1.612265, -3.643395, 10.492001, 0.031590, 0.000000, 1.956301

149504325.116626, 0.019853, -0.014661, 0.003971, 0.014889, 0.046549, 0.966453, -2.984223, -6.496887, 18.908924, 0.032192, -0.000501, 1.956962

149504325.117965, 0.018021, -0.011606, 0.003971, 0.014889, 0.046549, 0.966453, -4.081789, -8.779680, 25.642464, 0.032752, -0.000948, 1.957691

149504325.119303, 0.019548, -0.011301, 0.004276, -0.000000, 0.031033, 0.966453, -4.959841, -10.687548, 31.052620, 0.032995, -0.001079, 1.958036

149504325.120639, 0.017715, -0.016799, 0.001222, -0.000000, 0.031033, 0.966453, -5.662283, -12.213841, 35.380745, 0.033209, -0.001278, 1.958327

149504325.121975, 0.019853, -0.016188, 0.001833, -0.000000, 0.031033, 0.966453, -6.224237, -13.434876, 38.843243, 0.033446, -0.001465, 1.958616

149504325.123312, 0.018937, -0.017715, 0.004276, -0.000000, 0.031033, 0.966453, -6.632728, -14.350480, 41.543270, 0.033667, -0.001670, 1.958913

149504325.124653, 0.023518, -0.019853, 0.002443, -0.000000, 0.031033, 0.966453, -6.959520, -15.082963, 43.703293, 0.033945, -0.001899, 1.959166

149504325.125991, 0.021991, -0.015882, 0.001527, -0.000000, 0.031033, 0.966453, -7.200418, -15.628134, 45.454636, 0.034196, -0.002070, 1.959391

149504325.127334, 0.020159, -0.016188, 0.002749, -0.000000, 0.031033, 0.982041, -7.393136, -16.064270, 46.855709, 0.034409, -0.002243, 1.959627

149504325.128669, 0.020464, -0.019242, 0.003971, -0.000000, 0.031033, 0.982041, -7.547310, -16.413179, 47.976566, 0.034620, -0.002452, 1.959866

149504325.130005, 0.025045, -0.018021, 0.003360, -0.000000, 0.000000, 0.950865, -7.691186, -16.712715, 48.849930, 0.034255, -0.002655, 1.960747

149504325.131341, 0.021380, -0.016799, 0.004276, 0.014889, 0.031033, 0.950865, -7.806287, -16.952343, 49.548622, 0.034507, -0.003137, 1.961649

149504325.132677, 0.016493, -0.015882, 0.005803, 0.014889, 0.031033, 0.950865, -7.939440, -17.123638, 50.084251, 0.034690, -0.003599, 1.962602

149504325.134012, 0.018937, -0.020464, 0.003971, -0.000000, 0.015516, 0.982041, -8.045962, -17.260674, 50.512753, 0.034559, -0.003801, 1.963192

149504325.135353, 0.025045, -0.023213, 0.003971, -0.000000, 0.031033, 0.950865, -8.131181, -17.370302, 50.855553, 0.034849, -0.004032, 1.963466

149504325.136689, 0.026573, -0.017410, 0.003360, 0.014889, 0.031033, 0.950865, -8.158282, -17.478413, 51.153118, 0.035158, -0.004495, 1.964396

149504325.138025, 0.019242, -0.015882, 0.001833, -0.000000, 0.015516, 0.966453, -8.179964, -17.564901, 51.391171, 0.035026, -0.004618, 1.964912

149504325.139361, 0.021380, -0.017715, 0.000916, -0.000000, 0.015516, 0.966453, -8.217846, -17.634092, 51.558289, 0.034925, -0.004763, 1.965411

149504325.140696, 0.021380, -0.015882, 0.001833, -0.000000, 0.015516, 0.950865, -8.248151, -17.689445, 51.691982, 0.034832, -0.004881, 1.965912

149504325.142032, 0.021686, -0.015882, 0.000611, -0.000000, 0.046549, 0.982041, -8.272395, -17.733727, 51.798939, 0.035367, -0.004992, 1.965796

149504325.143368, 0.021991, -0.017104, 0.003665, -0.000000, 0.046549, 0.982041, -8.271254, -17.809969, 51.931152, 0.035895, -0.005118, 1.965691

149504325.144704, 0.020159, -0.016493, 0.006414, -0.000000, 0.046549, 0.950865, -8.270341, -17.870962, 52.036922, 0.036419, -0.005236, 1.965574

149504325.146042, 0.022907, -0.017104, 0.003054, -0.000000, 0.046549, 0.982041, -8.290147, -17.899349, 52.098213, 0.036939, -0.005358, 1.965448

149504325.147378, 0.023213, -0.018021, 0.001833, 0.029778, 0.046549, 0.982041, -8.305992, -17.922058, 52.147247, 0.037464, -0.006087, 1.966583

149504325.148713, 0.021380, -0.014661, 0.001222, -0.000000, 0.015516, 0.966453, -8.318668, -17.940226, 52.186474, 0.037315, -0.006162, 1.967019

149504325.150050, 0.021380, -0.013744, 0.001833, -0.000000, 0.015516, 0.966453, -8.328809, -17.954760, 52.264503, 0.037168, -0.006224, 1.967457

149504325.151385, 0.015272, -0.012523, 0.003360, -0.000000, 0.031033, 0.966453, -8.336922, -17.966387, 52.326927, 0.037266, -0.006266, 1.967592

149504325.152720, 0.023213, -0.018937, 0.003360, -0.000000, 0.062065, 0.982041, -8.302339, -17.975689, 52.306892, 0.038088, -0.006396, 1.967142

149504325.154056, 0.021380, -0.016493, 0.006109, -0.000000, 0.062065, 0.982041, -8.274673, -17.983130, 52.290867, 0.038870, -0.006493, 1.966713

149504325.155394, 0.022602, -0.015882, 0.004887, -0.000000, 0.046549, 0.919689, -8.252540, -17.989082, 52.278046, 0.039401, -0.006575, 1.966467

149504325.156730, 0.025045, -0.010996, 0.002443, -0.000000, 0.031033, 0.950865, -8.296442, -17.993845, 52.314438, 0.039593, -0.006589, 1.966556

149504325.158067, 0.017715, -0.017104, 0.001833, -0.000000, 0.031033, 0.950865, -8.331564, -17.997656, 52.343552, 0.039685, -0.006683, 1.966660

149504325.159402, 0.020464, -0.020464, 0.002443, -0.000000, 0.031033, 0.966453, -8.359662, -18.000704, 52.366840, 0.039801, -0.006818, 1.966801

149504325.160738, 0.024740, -0.018631, 0.003665, -0.000000, 0.031033, 0.966453, -8.320531, -18.064367, 52.385471, 0.039971, -0.006928, 1.966899

149504325.162077, 0.026573, -0.021686, 0.003665, -0.000000, 0.031033, 0.966453, -8.289227, -18.115297, 52.400379, 0.040161, -0.007076, 1.966948

149504325.163411, 0.023213, -0.016799, 0.003054, 0.014889, 0.031033, 0.966453, -8.264183, -18.054001, 52.365654, 0.040306, -0.007466, 1.967667

149504325.164747, 0.019242, -0.014050, 0.002749, 0.014889, 0.031033, 0.966453, -8.244148, -18.004963, 52.337875, 0.040396, -0.007813, 1.968371

149504325.166086, 0.022602, -0.013744, 0.002443, -0.000000, 0.031033, 0.966453, -8.228120, -17.965733, 52.315651, 0.040527, -0.007838, 1.968381

149504325.167423, 0.022907, -0.015882, 0.000611, -0.000000, 0.031033, 0.982041, -8.276906, -17.934349, 52.367844, 0.040648, -0.007890, 1.968429

149504325.168757, 0.019548, -0.014661, 0.002749, -0.000000, 0.031033, 0.982041, -8.315935, -17.909243, 52.409599, 0.040722, -0.007925, 1.968546

149504325.170099, 0.021380, -0.013744, 0.003360, -0.015630, 0.015516, 0.966453, -8.347158, -17.909565, 52.443005, 0.040513, -0.007622, 1.968247

149504325.171437, 0.023518, -0.011301, 0.003054, -0.015630, 0.015516, 0.966453, -8.372137, -17.909822, 52.469727, 0.040336, -0.007292, 1.967974

149504325.172773, 0.022907, -0.013134, 0.001527, -0.000000, 0.031033, 0.935277, -8.392120, -17.910028, 52.491104, 0.040492, -0.007319, 1.968120

149504325.174111, 0.021075, -0.018326, 0.004276, 0.014889, 0.031033, 0.982041, -8.387570, -17.889786, 52.508209, 0.040593, -0.007722, 1.968997

149504325.175449, 0.019548, -0.011301, 0.000611, 0.014889, 0.031033, 0.982041, -8.383930, -17.873592, 52.521893, 0.040672, -0.008023, 1.969816

149504325.176786, 0.021075, -0.012217, 0.001833, -0.000000, 0.031033, 0.966453, -8.319409, -17.799412, 52.462868, 0.040777, -0.008024, 1.969929

149504325.178122, 0.021075, -0.014050, 0.002138, 0.014889, 0.015516, 0.982041, -8.267793, -17.740068, 52.415646, 0.040557, -0.008365, 1.971042

149504325.179460, 0.022602, -0.010690, 0.005498, 0.014889, 0.015516, 0.982041, -8.226500, -17.692593, 52.377869, 0.040361, -0.008657, 1.972163

149504325.180795, 0.021380, -0.010079, 0.003971, -0.000000, 0.015516, 0.966453, -8.234537, -17.675020, 52.394295, 0.040153, -0.008622, 1.972555

149504325.182131, 0.024129, -0.009774, 0.002138, -0.000000, 0.015516, 0.966453, -8.240968, -17.660963, 52.407436, 0.039985, -0.008582, 1.972925

149504325.183466, 0.018631, -0.014966, 0.001833, -0.000000, 0.031033, 0.982041, -8.287185, -17.710941, 52.441273, 0.040061, -0.008607, 1.972990

149504325.184803, 0.024435, -0.016493, 0.001222, -0.000000, 0.062065, 0.982041, -8.324159, -17.750923, 52.468342, 0.040844, -0.008657, 1.972491

149504325.186140, 0.020769, -0.017715, 0.001527, -0.000000, 0.062065, 0.982041, -8.353738, -17.782909, 52.489998, 0.041563, -0.008722, 1.972019

149504325.187476, 0.014661, -0.018326, -0.000305, -0.000000, 0.046549, 0.966453, -8.336329, -17.828907, 52.507324, 0.041888, -0.008788, 1.971761

149504325.188811, 0.023824, -0.015577, 0.002443, -0.000000, 0.046549, 0.950865, -8.322401, -17.865705, 52.521183, 0.042341, -0.008819, 1.971508

149504325.190157, 0.017104, -0.013744, 0.002443, -0.000000, 0.046549, 0.950865, -8.331795, -17.833920, 52.462299, 0.042699, -0.008826, 1.971280

149504325.191497, 0.017715, -0.014355, 0.003054, -0.000000, 0.015516, 0.966453, -8.339310, -17.808491, 52.415192, 0.042396, -0.008845, 1.971715

149504325.192834, 0.017104, -0.013134, 0.000916, -0.000000, 0.015516, 0.966453, -8.345322, -17.788147, 52.377506, 0.042092, -0.008845, 1.972128

149504325.194172, 0.021380, -0.011301, -0.001222, -0.000000, 0.031033, 0.966453, -8.329596, -17.771872, 52.370682, 0.042172, -0.008816, 1.972175

149504325.195511, 0.023518, -0.014966, -0.000916, -0.000000, 0.015516, 0.966453, -8.317015, -17.758852, 52.365223, 0.041957, -0.008841, 1.972540

149504325.196849, 0.021686, -0.017715, 0.002138, -0.000000, 0.015516, 0.966453, -8.306950, -17.789253, 52.360855, 0.041722, -0.008902, 1.972916

149504325.198186, 0.025351, -0.015577, 0.003360, -0.000000, 0.031033, 0.966453, -8.298898, -17.813574, 52.357361, 0.041861, -0.008930, 1.972962

149504325.199540, 0.022907, -0.015577, 0.000916, 0.014889, 0.031033, 0.950865, -8.292456, -17.833031, 52.354565, 0.041983, -0.009274, 1.973643

149504325.200882, 0.018937, -0.010690, 0.003665, 0.014889, 0.031033, 0.950865, -8.287302, -17.766962, 52.352329, 0.042046, -0.009547, 1.974370

149504325.202221, 0.017715, -0.013134, 0.005192, -0.000000, 0.046549, 0.982041, -8.283179, -17.714108, 52.350540, 0.042386, -0.009532, 1.974152

149504325.203559, 0.020159, -0.012217, 0.002749, -0.000000, 0.046549, 0.982041, -8.279881, -17.753456, 52.325783, 0.042751, -0.009504, 1.973890

149504325.204897, 0.021991, -0.010690, 0.005192, -0.000000, 0.031033, 0.950865, -8.277243, -17.784935, 52.305977, 0.042836, -0.009457, 1.973926

149504325.206238, 0.021991, -0.015577, 0.003665, -0.000000, 0.031033, 0.982041, -8.275132, -17.810120, 52.290134, 0.042900, -0.009474, 1.973949

149504325.207574, 0.018631, -0.013439, 0.004887, -0.000000, 0.031033, 0.982041, -8.252908, -17.830267, 52.347431, 0.042918, -0.009463, 1.973960

149504325.208910, 0.018631, -0.018631, 0.005192, -0.000000, 0.031033, 0.966453, -8.235127, -17.846384, 52.393269, 0.042945, -0.009520, 1.973940

149504325.210246, 0.022907, -0.015272, 0.003360, -0.031260, 0.015516, 1.013217, -8.261976, -17.838871, 52.453262, 0.042716, -0.008899, 1.972777

149504325.211581, 0.025962, -0.017410, 0.004887, -0.031260, 0.015516, 1.013217, -8.283455, -17.832859, 52.501259, 0.042530, -0.008319, 1.971676

149504325.212916, 0.021991, -0.019242, 0.003971, -0.000000, 0.046549, 0.982041, -8.300638, -17.828051, 52.539654, 0.042915, -0.008406, 1.971464

149504325.214253, 0.023518, -0.018021, 0.000916, -0.000000, 0.046549, 0.982041, -8.293848, -17.824203, 52.547047, 0.043314, -0.008475, 1.971212

149504325.215590, 0.019548, -0.016799, 0.003971, 0.014889, 0.031033, 0.966453, -8.288416, -17.821125, 52.552963, 0.043347, -0.008840, 1.971968

149504325.216926, 0.022297, -0.014966, 0.003971, -0.000000, 0.062065, 0.982041, -8.345679, -17.757439, 52.557693, 0.044037, -0.008866, 1.971539

149504325.218264, 0.018631, -0.017104, 0.003971, -0.000000, 0.062065, 0.982041, -8.391490, -17.706490, 52.561478, 0.044664, -0.008918, 1.971172

149504325.219599, 0.023518, -0.017410, 0.002138, -0.000000, 0.031033, 0.966453, -8.428139, -17.665730, 52.564507, 0.044719, -0.008970, 1.971402

149504325.220934, 0.020464, -0.018326, 0.000305, 0.014889, 0.046549, 0.966453, -8.457458, -17.673939, 52.566929, 0.045057, -0.009337, 1.971979

149504325.222271, 0.018326, -0.016799, -0.000611, 0.014889, 0.046549, 0.966453, -8.480913, -17.680506, 52.568867, 0.045360, -0.009677, 1.972550

149504325.223606, 0.023518, -0.018937, 0.003054, 0.014889, 0.015516, 0.982041, -8.499678, -17.685759, 52.570419, 0.045080, -0.010054, 1.973844

149504325.224942, 0.021380, -0.013744, 0.001833, 0.014889, 0.015516, 0.982041, -8.494153, -17.812410, 52.548336, 0.044777, -0.010354, 1.975041

149504325.226281, 0.021075, -0.016188, 0.003054, -0.000000, 0.015516, 0.950865, -8.489733, -17.913733, 52.530670, 0.044482, -0.010367, 1.975485

149504325.227618, 0.021075, -0.018631, 0.002138, -0.000000, 0.046549, 0.966453, -8.547806, -17.872341, 52.563183, 0.044832, -0.010405, 1.975351

149504325.228953, 0.018021, -0.014050, 0.002443, -0.000000, 0.046549, 0.966453, -8.594264, -17.839228, 52.589195, 0.045133, -0.010383, 1.975276

149504325.230291, 0.018326, -0.019853, 0.002749, -0.000000, 0.062065, 0.966453, -8.631431, -17.812737, 52.610004, 0.045755, -0.010440, 1.974959

149504325.231626, 0.020464, -0.018631, 0.001222, -0.000000, 0.031033, 0.950865, -8.620091, -17.832359, 52.626652, 0.045759, -0.010477, 1.975191

149504325.232962, 0.015882, -0.018937, 0.003360, -0.000000, 0.031033, 0.950865, -8.611020, -17.848059, 52.639969, 0.045703, -0.010519, 1.975433

149504325.234298, 0.023824, -0.013744, 0.005498, 0.014889, 0.015516, 0.966453, -8.583226, -17.819801, 52.557327, 0.045424, -0.010817, 1.976723

149504325.235635, 0.015882, -0.011912, 0.003665, 0.014889, 0.015516, 0.966453, -8.560991, -17.797195, 52.491215, 0.045047, -0.011084, 1.977956

149504325.236971, 0.023518, -0.015577, 0.003971, -0.000000, 0.031033, 0.950865, -8.543203, -17.779110, 52.438324, 0.045106, -0.011070, 1.978123

149504325.238308, 0.024129, -0.012828, 0.003054, -0.000000, 0.015516, 0.966453, -8.528974, -17.764643, 52.465984, 0.044838, -0.011024, 1.978609

149504325.239643, 0.021075, -0.011912, 0.002138, -0.000000, 0.015516, 0.966453, -8.517590, -17.753069, 52.488113, 0.044536, -0.010967, 1.979068

149504325.240979, 0.023824, -0.012523, 0.003971, -0.000000, 0.031033, 0.966453, -8.487946, -17.764217, 52.482491, 0.044598, -0.010914, 1.979182

149504325.242315, 0.019242, -0.017104, 0.000305, -0.000000, 0.046549, 0.982041, -8.464231, -17.773136, 52.477993, 0.044907, -0.010920, 1.978931

149504325.243650, 0.018631, -0.018021, 0.002749, -0.000000, 0.046549, 0.982041, -8.445259, -17.780272, 52.474396, 0.045201, -0.010940, 1.978698

149504325.244985, 0.018937, -0.016188, 0.003665, -0.000000, 0.015516, 0.966453, -8.491691, -17.765572, 52.494843, 0.044863, -0.010940, 1.979144

149504325.246324, 0.022297, -0.016799, 0.000916, -0.000000, 0.015516, 0.966453, -8.528836, -17.753811, 52.511200, 0.044577, -0.010948, 1.979583

149504325.247660, 0.017104, -0.017410, 0.001222, -0.000000, 0.031033, 0.950865, -8.517480, -17.785219, 52.524284, 0.044561, -0.010958, 1.979655

149504325.248995, 0.020159, -0.016493, 0.003971, -0.000000, 0.031033, 0.966453, -8.508394, -17.810347, 52.534752, 0.044575, -0.010958, 1.979755

149504325.250332, 0.023518, -0.013134, 0.006109, -0.000000, 0.031033, 0.966453, -8.501126, -17.830448, 52.543125, 0.044633, -0.010914, 1.979869

149504325.251667, 0.024435, -0.016493, 0.002443, -0.000000, 0.031033, 0.982041, -8.515848, -17.805714, 52.573147, 0.044691, -0.010913, 1.979962

149504325.253002, 0.020769, -0.017104, 0.001222, -0.015630, 0.015516, 0.966453, -8.527625, -17.785925, 52.597164, 0.044395, -0.010591, 1.979614

149504325.254338, 0.017715, -0.018937, 0.002749, -0.015630, 0.015516, 0.966453, -8.475438, -17.749687, 52.569733, 0.044065, -0.010300, 1.979259

149504325.255675, 0.025351, -0.018937, 0.003971, -0.000000, 0.015516, 0.966453, -8.433688, -17.720695, 52.547787, 0.043835, -0.010349, 1.979663

149504325.257012, 0.021075, -0.019548, 0.002138, -0.000000, 0.015516, 0.966453, -8.400289, -17.697502, 52.530231, 0.043553, -0.010404, 1.980014

149504325.258349, 0.019242, -0.017104, 0.001527, -0.000000, 0.031033, 0.982041, -8.435178, -17.658541, 52.469536, 0.043566, -0.010421, 1.980079

149504325.259686, 0.014661, -0.013744, 0.002749, -0.000000, 0.015516, 0.950865, -8.463089, -17.627371, 52.420982, 0.043211, -0.010399, 1.980513

149504325.261024, 0.017104, -0.011912, 0.000611, -0.000000, 0.015516, 0.950865, -8.423809, -17.643251, 52.428787, 0.042895, -0.010352, 1.980870

149504325.262358, 0.018937, -0.016799, 0.001833, -0.000000, 0.031033, 0.982041, -8.392385, -17.655956, 52.435032, 0.042917, -0.010366, 1.980887

149504325.263692, 0.019853, -0.014966, 0.003971, -0.000000, 0.015516, 0.966453, -8.367247, -17.666119, 52.440025, 0.042637, -0.010360, 1.981224

149504325.265027, 0.019853, -0.012523, 0.002749, -0.000000, 0.015516, 0.966453, -8.408744, -17.715065, 52.420696, 0.042363, -0.010322, 1.981557

149504325.266371, 0.006109, 0.017104, 0.003665, -0.000000, 0.031033, 0.982041, -8.441942, -17.754223, 52.405235, 0.042228, -0.009893, 1.981609

149504325.267710, 0.008858, 0.002138, 0.003971, -0.000000, 0.031033, 0.982041, -8.427428, -17.744732, 52.462837, 0.042131, -0.009670, 1.981646

149504325.269049, 0.045815, 0.006414, 0.004276, -0.000000, 0.031033, 0.950865, -8.415817, -17.737141, 52.508919, 0.042542, -0.009394, 1.981660

149504325.270385, 0.047953, 0.006414, 0.002749, -0.000000, 0.031033, 0.966453, -8.406528, -17.731068, 52.545784, 0.042961, -0.009124, 1.981659

149504325.271722, 0.046426, 0.009163, 0.010079, -0.000000, 0.031033, 0.966453, -8.419633, -17.726208, 52.528629, 0.043351, -0.008827, 1.981768

149504325.273060, 0.036346, -0.010079, 0.005498, 0.014889, 0.046549, 0.966453, -8.430117, -17.722321, 52.514904, 0.043924, -0.009093, 1.982171

149504325.274396, 0.031154, -0.011301, 0.006109, 0.029778, 0.046549, 0.950865, -8.438504, -17.780436, 52.503925, 0.044441, -0.009685, 1.983199

149504325.275734, 0.016493, -0.016799, 0.004887, 0.029778, 0.046549, 0.950865, -8.445214, -17.826927, 52.495140, 0.044756, -0.010338, 1.984174

149504325.277074, 0.026878, -0.018631, 0.005803, -0.000000, 0.062065, 0.950865, -8.450582, -17.864120, 52.488113, 0.045520, -0.010386, 1.983541

149504325.278410, 0.013439, -0.019242, 0.002138, -0.000000, 0.062065, 0.950865, -8.434340, -17.791834, 52.505814, 0.046093, -0.010438, 1.982882

149504325.279746, 0.022297, -0.009468, 0.004581, -0.000000, 0.031033, 0.950865, -8.421346, -17.734005, 52.519974, 0.046115, -0.010355, 1.982872

149504325.281087, 0.010690, -0.016493, 0.001222, -0.000000, 0.031033, 0.966453, -8.410951, -17.687742, 52.531303, 0.045975, -0.010365, 1.982834

149504325.282424, 0.015577, -0.006414, 0.000611, -0.000000, 0.031033, 0.966453, -8.402635, -17.650732, 52.540367, 0.045902, -0.010242, 1.982800

149504325.283760, 0.023213, -0.003665, 0.003054, -0.000000, 0.046549, 0.950865, -8.395982, -17.621124, 52.547619, 0.046268, -0.010087, 1.982487

149504325.285102, 0.034819, -0.006414, 0.001527, -0.000000, 0.031033, 0.966453, -8.411196, -17.617846, 52.600067, 0.046442, -0.009971, 1.982492

149504325.286440, 0.040623, -0.011301, 0.004276, -0.000000, 0.031033, 0.966453, -8.423368, -17.615223, 52.642025, 0.046688, -0.009922, 1.982540

149504325.287777, 0.043677, -0.014050, 0.003360, -0.000000, 0.031033, 0.950865, -8.433105, -17.613125, 52.675594, 0.046979, -0.009910, 1.982573

149504325.289113, 0.040012, -0.011606, 0.004276, -0.000000, 0.031033, 0.950865, -8.502503, -17.591038, 52.655800, 0.047215, -0.009867, 1.982687

149504325.290449, 0.033598, -0.010385, 0.007025, -0.000000, 0.015516, 0.966453, -8.558022, -17.573368, 52.639965, 0.047028, -0.009817, 1.983238

149504325.291784, 0.028405, -0.003971, 0.003360, -0.000000, 0.046549, 0.982041, -8.602438, -17.579641, 52.650620, 0.047407, -0.009674, 1.983135

149504325.293121, 0.021686, -0.004276, 0.005192, -0.000000, 0.046549, 0.982041, -8.637970, -17.584660, 52.659145, 0.047690, -0.009540, 1.983087

149504325.294456, 0.023824, -0.009468, 0.004887, -0.000000, 0.031033, 0.982041, -8.666396, -17.588675, 52.665966, 0.047678, -0.009478, 1.983364

149504325.295796, 0.023824, -0.011301, 0.005803, -0.000000, 0.015516, 0.982041, -8.668600, -17.612293, 52.624775, 0.047351, -0.009448, 1.983973

149504325.297134, 0.016799, -0.013439, 0.003360, -0.000000, 0.015516, 0.982041, -8.670363, -17.631189, 52.591820, 0.046937, -0.009446, 1.984529

149504325.298470, 0.018631, -0.021380, 0.003665, 0.029778, 0.062065, 0.950865, -8.671774, -17.625898, 52.518806, 0.047554, -0.010156, 1.985386

149504325.299807, 0.021075, -0.016493, 0.008552, 0.029778, 0.062065, 0.950865, -8.672902, -17.621666, 52.460396, 0.048190, -0.010792, 1.986294

149504325.301142, 0.023518, -0.011912, 0.004581, -0.000000, 0.031033, 0.966453, -8.673805, -17.618279, 52.413670, 0.048174, -0.010736, 1.986489

149504325.302478, 0.025962, -0.008858, 0.001222, -0.000000, 0.031033, 0.966453, -8.633454, -17.635977, 52.446259, 0.048192, -0.010639, 1.986596

149504325.303813, 0.028100, -0.010996, 0.001833, -0.000000, 0.031033, 0.966453, -8.601174, -17.650135, 52.472332, 0.048237, -0.010571, 1.986673

149504325.305156, 0.028711, -0.016799, 0.007941, -0.000000, 0.031033, 0.966453, -8.657495, -17.641054, 52.446541, 0.048291, -0.010587, 1.986879

149504325.306494, 0.031460, -0.015272, 0.009468, -0.000000, 0.031033, 0.997629, -8.702553, -17.633789, 52.425911, 0.048357, -0.010582, 1.987163

149504325.307831, 0.030849, -0.013744, 0.007025, -0.000000, 0.031033, 0.997629, -8.738598, -17.627977, 52.409405, 0.048414, -0.010557, 1.987444

149504325.309170, 0.029322, -0.014355, 0.005498, -0.000000, 0.031033, 0.966453, -8.705825, -17.643736, 52.442848, 0.048471, -0.010538, 1.987644

149504325.310506, 0.027184, -0.015882, 0.004581, -0.000000, 0.031033, 0.966453, -8.679606, -17.656343, 52.469604, 0.048499, -0.010539, 1.987799

149504325.311841, 0.022297, -0.013439, 0.004276, -0.000000, 0.046549, 0.950865, -8.638096, -17.625612, 52.421036, 0.048799, -0.010507, 1.987600

149504325.313177, 0.023213, -0.017715, 0.005498, -0.000000, 0.046549, 0.966453, -8.604887, -17.601028, 52.382179, 0.049091, -0.010531, 1.987414

149504325.314514, 0.021380, -0.019853, 0.005803, -0.000000, 0.046549, 0.966453, -8.578321, -17.581362, 52.351097, 0.049352, -0.010584, 1.987220

149504325.315850, 0.023824, -0.017410, 0.003360, -0.000000, 0.046549, 0.966453, -8.618676, -17.606443, 52.396202, 0.049640, -0.010603, 1.987024

149504325.317187, 0.018021, -0.015272, 0.003665, 0.014889, 0.031033, 0.950865, -8.650961, -17.626509, 52.432285, 0.049538, -0.010912, 1.987840

149504325.318523, 0.021075, -0.013744, 0.002443, 0.014889, 0.031033, 0.950865, -8.553571, -17.622154, 52.414505, 0.049477, -0.011194, 1.988546

149504325.319859, 0.019853, -0.010690, 0.000305, -0.000000, 0.046549, 0.950865, -8.475658, -17.618670, 52.400280, 0.049728, -0.011110, 1.988148

149504325.321195, 0.023213, -0.017104, 0.003971, -0.000000, 0.046549, 0.950865, -8.413328, -17.615883, 52.388901, 0.050017, -0.011114, 1.987751

149504325.322531, 0.019242, -0.010996, 0.005192, -0.000000, 0.062065, 0.966453, -8.445609, -17.552429, 52.403122, 0.050554, -0.011043, 1.987159

149504325.323866, 0.026573, -0.011606, 0.005192, -0.000000, 0.031033, 0.966453, -8.471435, -17.501665, 52.414497, 0.050532, -0.010977, 1.987215

149504325.325202, 0.026267, -0.014355, 0.006720, -0.000000, 0.031033, 0.966453, -8.512631, -17.501871, 52.400276, 0.050506, -0.010950, 1.987323

149504325.326539, 0.024435, -0.017410, 0.004581, -0.000000, 0.031033, 0.982041, -8.545588, -17.502035, 52.388897, 0.050447, -0.010963, 1.987438

149504325.327877, 0.018937, -0.014355, 0.002443, -0.000000, 0.046549, 0.950865, -8.571954, -17.502167, 52.379795, 0.050666, -0.010933, 1.987211

149504325.329213, 0.019853, -0.017104, 0.002138, -0.000000, 0.046549, 0.950865, -8.593046, -17.441048, 52.419159, 0.050892, -0.010940, 1.987022

149504325.330549, 0.022297, -0.018326, 0.002749, -0.000000, 0.046549, 0.966453, -8.609921, -17.392151, 52.450653, 0.051129, -0.010962, 1.986890

149504325.331884, 0.019242, -0.017104, 0.003360, -0.000000, 0.046549, 0.966453, -8.561810, -17.393850, 52.499172, 0.051322, -0.010968, 1.986727

149504325.333219, 0.019853, -0.017715, 0.002443, -0.000000, 0.046549, 0.950865, -8.523323, -17.395210, 52.537987, 0.051535, -0.010982, 1.986507

149504325.334555, 0.016493, -0.020769, 0.000916, -0.000000, 0.046549, 0.966453, -8.492533, -17.396297, 52.569038, 0.051684, -0.011034, 1.986256

149504325.335891, 0.017715, -0.019853, 0.003360, -0.000000, 0.046549, 0.966453, -8.550046, -17.397167, 52.570557, 0.051846, -0.011075, 1.986092

149504325.337229, 0.015577, -0.018021, 0.004276, -0.000000, 0.015516, 0.966453, -8.596057, -17.397863, 52.571770, 0.051331, -0.011101, 1.986642

149504325.338565, 0.018631, -0.012828, 0.004887, 0.029778, 0.031033, 0.982041, -8.530184, -17.459644, 52.572739, 0.051193, -0.011670, 1.988101

149504325.339901, 0.021686, -0.015577, 0.004581, 0.029778, 0.031033, 0.982041, -8.477485, -17.509069, 52.573517, 0.051096, -0.012262, 1.989460

149504325.341238, 0.019548, -0.018326, 0.002443, -0.000000, 0.015516, 0.966453, -8.435326, -17.548611, 52.574139, 0.050649, -0.012262, 1.989712

149504325.342578, 0.025962, -0.018326, 0.003360, -0.000000, 0.015516, 0.966453, -8.422134, -17.559835, 52.551311, 0.050297, -0.012263, 1.989955

149504325.343916, 0.023518, -0.016799, 0.004581, 0.014889, 0.046549, 0.950865, -8.411582, -17.568815, 52.533051, 0.050577, -0.012553, 1.990213

149504325.345253, 0.023213, -0.017104, 0.003971, -0.000000, 0.046549, 0.966453, -8.403140, -17.575998, 52.518440, 0.050835, -0.012528, 1.989792

149504325.346591, 0.018937, -0.016188, 0.002749, -0.000000, 0.046549, 0.966453, -8.457995, -17.622562, 52.506752, 0.051032, -0.012491, 1.989394

149504325.347928, 0.018631, -0.017715, 0.002138, -0.000000, 0.015516, 0.966453, -8.501880, -17.659813, 52.497402, 0.050575, -0.012479, 1.989658

149504325.349277, 0.018326, -0.017410, 0.007025, -0.000000, 0.015516, 0.966453, -8.557524, -17.669205, 52.513245, 0.050123, -0.012469, 1.990027

149504325.350621, 0.015272, -0.016799, 0.003665, -0.000000, 0.015516, 0.966453, -8.602038, -17.676718, 52.525921, 0.049641, -0.012448, 1.990381

149504325.351958, 0.008552, -0.016493, 0.003360, -0.000000, 0.046549, 0.982041, -8.637650, -17.682728, 52.536060, 0.049709, -0.012417, 1.990123

149504325.353299, 0.000611, -0.017715, 0.002443, -0.000000, 0.046549, 0.982041, -8.625068, -17.646721, 52.520847, 0.049671, -0.012402, 1.989859

149504325.354636, 0.016188, -0.007941, 0.004887, -0.015630, 0.046549, 0.982041, -8.615001, -17.617914, 52.508678, 0.049850, -0.011942, 1.988940

149504325.355976, 0.017410, -0.012217, 0.000916, -0.000000, 0.031033, 0.950865, -8.627484, -17.615278, 52.498943, 0.049734, -0.011865, 1.988983

149504325.357316, 0.024435, -0.012523, 0.004887, -0.000000, 0.031033, 0.950865, -8.637471, -17.613169, 52.491154, 0.049712, -0.011795, 1.989087

149504325.358653, 0.003054, -0.025351, 0.006414, -0.000000, 0.031033, 0.982041, -8.645460, -17.611481, 52.484924, 0.049389, -0.011896, 1.989229

149504325.359989, 0.011301, -0.018631, 0.005498, -0.000000, 0.031033, 0.966453, -8.631315, -17.610130, 52.456615, 0.049190, -0.011906, 1.989339

149504325.361326, 0.028711, -0.015882, 0.007025, -0.000000, 0.031033, 0.966453, -8.619999, -17.609051, 52.433968, 0.049223, -0.011881, 1.989460

149504325.362660, 0.020159, -0.013744, 0.003360, -0.000000, 0.031033, 0.950865, -8.569874, -17.567371, 52.439175, 0.049154, -0.011825, 1.989493

149504325.364003, 0.021991, -0.014050, -0.018937, -0.000000, 0.031033, 0.950865, -8.529774, -17.534027, 52.443340, 0.049116, -0.011760, 1.989211

149504325.365356, 0.059865, -0.011606, -0.046731, -0.015630, 0.015516, 0.982041, -8.497693, -17.507351, 52.446674, 0.049257, -0.011323, 1.988147

149504325.366713, 0.062614, -0.023213, -0.196393, 0.014889, -0.123865, 0.919689, -8.533638, -17.506418, 52.449341, 0.046502, -0.012177, 1.991901

149504325.368066, 0.015882, -0.008247, 0.047037, 0.014889, -0.123865, 0.919689, -8.562394, -17.505672, 52.451473, 0.043138, -0.012954, 1.998857

149504325.369417, 0.059254, 0.047647, 0.425162, -0.031260, 0.279294, 0.966453, -8.585399, -17.484669, 52.429855, 0.048688, -0.012181, 2.000359

149504325.370770, 0.054062, 0.018937, 0.321621, -0.000000, 0.046549, 0.935277, -8.603803, -17.467865, 52.412560, 0.049377, -0.011896, 2.004144

149504325.372122, 0.010385, -0.007025, -0.122173, -0.000000, 0.046549, 0.935277, -8.618526, -17.454422, 52.398724, 0.049543, -0.011671, 2.001980

149504325.373474, 0.002749, -0.026878, -0.146608, -0.000000, 0.000000, 0.966453, -8.630303, -17.443668, 52.341007, 0.048609, -0.011712, 2.000593

149504325.374824, -0.010385, -0.034208, -0.133779, -0.015630, 0.015516, 0.950865, -8.639726, -17.435064, 52.294834, 0.047854, -0.011507, 1.998265

149504325.376192, -0.031154, -0.050091, -0.069944, -0.015630, 0.015516, 0.950865, -8.647264, -17.489407, 52.327869, 0.046824, -0.011567, 1.996789

149504325.377549, -0.051313, -0.057116, -0.016799, -0.015630, -0.015483, 0.982041, -8.653295, -17.532879, 52.354298, 0.044890, -0.011773, 1.996779

149504325.378904, -0.050396, -0.072082, 0.086743, -0.015630, -0.015483, 0.982041, -8.658119, -17.567657, 52.375439, 0.042991, -0.012233, 1.998125

149504325.380258, -0.063835, -0.102931, 0.116370, -0.000000, 0.046549, 0.935277, -8.641442, -17.656706, 52.345703, 0.042263, -0.013420, 1.999133

149504325.381609, -0.068417, -0.151495, 0.086132, 0.014889, 0.062065, 0.966453, -8.628100, -17.727943, 52.321915, 0.041778, -0.015514, 2.000034

149504325.382960, -0.064141, -0.199753, 0.052534, 0.014889, 0.062065, 0.966453, -8.555819, -17.784933, 52.372856, 0.041367, -0.018184, 2.000367

149504325.384315, -0.092852, -0.267864, -0.033598, 0.014889, 0.062065, 0.966453, -8.497993, -17.830526, 52.413609, 0.040602, -0.021669, 1.999455

149504325.385666, -0.116370, -0.294742, -0.067806, 0.029778, 0.031033, 0.950865, -8.451732, -17.867001, 52.446213, 0.038929, -0.025727, 1.999333

149504325.387020, -0.146302, -0.331089, -0.083994, 0.029778, 0.031033, 0.950865, -8.270968, -17.916588, 52.518944, 0.036898, -0.030189, 1.998820

149504325.388373, -0.175624, -0.364381, -0.057727, 0.014889, 0.046549, 0.982041, -8.126358, -17.956257, 52.577129, 0.034813, -0.034689, 1.997544

149504325.389725, -0.258091, -0.522595, -0.062308, 0.014889, 0.046549, 0.982041, -7.805306, -18.090034, 52.530380, 0.031693, -0.041196, 1.995863

149504325.391077, -0.325286, -0.606895, -0.107207, -0.000000, 0.124131, 0.966453, -7.548465, -18.197056, 52.492981, 0.029440, -0.048494, 1.991577

149504325.392427, -0.541837, -0.792598, -0.281609, 0.014889, -0.015483, 1.013217, -7.342992, -18.282673, 52.463062, 0.021583, -0.058212, 1.987871

149504325.393775, -0.872926, -0.730289, -0.666149, 0.014889, -0.015483, 1.013217, -6.850032, -18.657290, 52.462452, 0.009880, -0.066846, 1.978644

149504325.395125, -1.008844, -0.588263, -0.553444, 0.029778, -0.092899, 0.904101, -6.455664, -18.956982, 52.461964, -0.005253, -0.074068, 1.974109

149504325.396478, -1.066265, -0.637743, -0.479224, -0.000000, -0.092899, 0.982041, -5.811588, -19.645716, 52.274979, -0.020663, -0.081103, 1.967396

149504325.397830, -1.233642, -0.926988, -0.350026, -0.000000, -0.092899, 0.982041, -5.296327, -20.196703, 52.125393, -0.038060, -0.091862, 1.961920

149504325.399197, -1.224479, -0.963335, -0.220522, 0.104221, -0.123865, 1.122332, -4.884119, -20.637493, 52.005722, -0.055694, -0.105003, 1.963455

149504325.400552, -1.057102, -0.682642, -0.116370, 0.133999, -0.061933, 1.044393, -4.205234, -21.418695, 51.816692, -0.069675, -0.114578, 1.965362

149504325.401904, -0.637438, 0.092241, -0.109039, 0.133999, -0.061933, 1.044393, -3.662126, -22.043657, 51.665466, -0.077723, -0.113702, 1.965930

149504325.403257, -0.588874, 0.154243, -0.167377, 0.133999, -0.092899, 0.872925, -3.227639, -22.768118, 51.404541, -0.085750, -0.112636, 1.967216

149504325.404609, -0.569632, 0.085521, -0.221133, 0.133999, -0.092899, 0.872925, -2.880050, -23.347687, 51.195801, -0.093300, -0.112564, 1.967228

149504325.405959, -0.543975, 0.031765, 0.006720, 0.148888, -0.046450, 0.841749, -2.601979, -23.811340, 51.028809, -0.099676, -0.113331, 1.969513

149504325.407332, -0.596204, -0.075442, -0.003360, 0.133999, -0.046450, 0.950865, -2.420594, -24.345530, 50.778599, -0.106685, -0.114866, 1.969921

149504325.408694, -0.649350, -0.039401, -0.018326, 0.133999, -0.046450, 0.950865, -2.275487, -24.772881, 50.578430, -0.114178, -0.115914, 1.969802

149504325.410050, -0.681726, 0.047953, -0.056810, 0.104221, -0.061933, 0.950865, -2.118328, -25.400475, 50.301674, -0.122150, -0.115266, 1.967735

149504325.411402, -0.716850, 0.038485, -0.103542, 0.104221, -0.123865, 0.950865, -1.992601, -25.902550, 50.080269, -0.131634, -0.114794, 1.965990

149504325.412754, -0.662178, 0.067501, -0.081245, 0.104221, -0.123865, 0.950865, -1.892020, -26.304211, 49.903145, -0.140225, -0.113926, 1.964271

149504325.414110, -0.642630, 0.060476, -0.056810, 0.089333, -0.232248, 0.966453, -1.832091, -26.911253, 49.621502, -0.150591, -0.112787, 1.964180

149504325.415464, -0.828944, 0.048258, -0.200364, 0.119110, -0.247731, 0.966453, -1.784148, -27.396887, 49.396187, -0.163275, -0.112804, 1.964043

149504325.416818, -0.732122, 0.105374, -0.107512, 0.119110, -0.247731, 0.966453, -1.745793, -28.050701, 48.982697, -0.174548, -0.111866, 1.964503

149504325.418175, -0.694248, 0.111788, -0.055283, 0.014889, -0.278697, 0.997629, -1.715109, -28.573753, 48.651901, -0.185424, -0.108401, 1.959130

149504325.419535, -0.756251, -0.131336, 0.158825, 0.014889, -0.278697, 0.997629, -1.690563, -28.992195, 48.387268, -0.197295, -0.107676, 1.957130

149504325.420890, -1.017091, 0.149357, 0.110567, 0.104221, -0.247731, 1.013217, -1.670925, -29.551437, 48.012291, -0.211752, -0.105276, 1.958131

149504325.422244, -1.305725, 0.353386, 0.054062, 0.074444, -0.263214, 0.919689, -1.655215, -29.998831, 47.712311, -0.230382, -0.099975, 1.957195

149504325.423595, -1.377807, 0.257480, 0.134085, 0.074444, -0.263214, 0.919689, -1.827474, -30.826134, 47.192440, -0.249678, -0.095783, 1.957309

149504325.424946, -1.485624, 0.358578, 0.109956, 0.059555, -0.294180, 0.888513, -1.965282, -31.487976, 46.776543, -0.270757, -0.090154, 1.956622

149504325.426299, -1.574200, 0.416305, 0.102014, 0.119110, -0.201281, 0.857337, -2.075528, -32.017448, 46.443825, -0.290789, -0.085344, 1.957034

149504325.427653, -1.497536, 0.167072, 0.131947, 0.119110, -0.201281, 0.857337, -2.348552, -32.930824, 45.757820, -0.309539, -0.083674, 1.958504

149504325.429007, -1.310917, 0.203113, 0.099266, 0.059555, -0.294180, 0.857337, -2.566971, -33.661526, 45.209015, -0.327373, -0.080340, 1.957967

149504325.430362, -1.182024, 0.226936, 0.138361, 0.059555, -0.294180, 0.857337, -2.823851, -34.654247, 44.350140, -0.343180, -0.076604, 1.957576

149504325.431713, -1.402241, 0.241597, 0.108734, 0.029778, -0.340630, 0.841749, -3.029356, -35.448425, 43.663040, -0.362549, -0.072206, 1.955750

149504325.433064, -1.894293, 0.381485, 0.150273, 0.014889, -0.356113, 0.810573, -3.193760, -36.083767, 43.113358, -0.388608, -0.065636, 1.953171

149504325.434415, -2.228131, 0.386983, 0.116064, 0.014889, -0.356113, 0.810573, -3.427964, -37.143063, 42.067188, -0.418515, -0.059352, 1.949878

149504325.435767, -2.603508, 0.390037, 0.060476, 0.044666, -0.418046, 0.779397, -3.615328, -37.990498, 41.230255, -0.454387, -0.054173, 1.949361

149504325.437122, -2.686891, 0.175013, -0.095906, 0.089333, -0.479978, 0.966453, -3.785756, -39.362324, 39.767693, -0.490073, -0.053235, 1.948296

149504325.438476, -1.982258, 0.208610, -0.056505, 0.089333, -0.479978, 0.966453, -3.922097, -40.459785, 38.597641, -0.515677, -0.051741, 1.946930

149504325.439828, -1.149648, 0.241903, 0.091019, -0.000000, -0.572877, 0.826161, -4.031171, -41.337753, 37.661602, -0.532670, -0.047280, 1.945119

149504325.441182, -0.729068, -0.040623, 0.381180, 0.029778, -0.495461, 0.888513, -4.200575, -42.305435, 36.562908, -0.542060, -0.044823, 1.948073

149504325.442535, -1.084591, 0.039401, 0.380874, 0.029778, -0.495461, 0.888513, -4.336098, -43.079582, 35.683956, -0.555943, -0.041475, 1.950196

149504325.443886, -1.629178, 0.286190, 0.198531, -0.000000, -0.495461, 0.763810, -4.567735, -44.025429, 34.514313, -0.577855, -0.036043, 1.947718

149504325.445238, -2.591290, 0.521984, -0.074220, -0.000000, -0.495461, 0.763810, -4.753045, -44.782104, 33.578598, -0.611943, -0.030196, 1.940303

149504325.446591, -2.831666, 0.415999, -0.207083, 0.044666, -0.557394, 0.654694, -4.901292, -45.387447, 32.830029, -0.651147, -0.027884, 1.937958

149504325.447944, -2.635884, 0.140804, -0.289245, 0.059555, -0.696743, 0.779397, -5.060963, -46.422741, 31.181593, -0.687488, -0.029448, 1.937068

149504325.449297, -1.215927, 0.329256, -0.069944, 0.059555, -0.696743, 0.779397, -5.188700, -47.250977, 29.862844, -0.704315, -0.027271, 1.936087

149504325.450650, -0.755335, 0.279471, 0.095295, -0.000000, -0.696743, 0.623518, -5.331962, -48.097237, 28.388014, -0.717042, -0.023205, 1.936437

149504325.452001, -0.595594, 0.158520, 0.210749, 0.014889, -0.712226, 0.623518, -5.446571, -48.774246, 27.208149, -0.727636, -0.019798, 1.939753

149504325.453356, -0.412029, 0.078191, 0.439823, 0.014889, -0.712226, 0.623518, -5.538259, -49.315853, 26.264257, -0.735650, -0.015155, 1.945342

149504325.454708, -0.764803, -0.013134, 0.364076, -0.000000, -0.588361, 0.717046, -5.775900, -49.810364, 25.369200, -0.744852, -0.011797, 1.946567

149504325.456059, -1.247998, 0.093768, 0.190285, -0.000000, -0.588361, 0.639106, -5.966012, -50.205971, 24.653154, -0.761365, -0.008947, 1.945772

149504325.457413, -1.699427, 0.260534, 0.003360, -0.000000, -0.588361, 0.639106, -6.138639, -50.767357, 23.450569, -0.783543, -0.006300, 1.941459

149504325.458766, -1.949576, 0.361632, -0.339336, -0.000000, -0.774159, 0.623518, -6.276740, -51.216465, 22.488501, -0.811526, -0.006073, 1.935594

149504325.460117, -1.458746, 0.301767, -0.328035, -0.000000, -0.774159, 0.623518, -6.387221, -51.575752, 21.718847, -0.832439, -0.006430, 1.930262

149504325.461470, -0.949590, 0.301767, -0.252898, -0.015630, -0.913507, 0.514402, -6.455070, -52.108078, 20.566673, -0.849539, -0.006412, 1.930567

149504325.462818, -0.492663, 0.032681, 0.082161, -0.000000, -0.805125, 0.561166, -6.509348, -52.533939, 19.644934, -0.858304, -0.005262, 1.932511

149504325.464171, -0.491747, -0.054062, 0.137750, -0.000000, -0.805125, 0.561166, -6.552772, -52.895039, 18.697626, -0.866909, -0.004286, 1.935296

149504325.465522, -0.561996, -0.047342, 0.168599, -0.000000, -0.665776, 0.592342, -6.587510, -53.183918, 17.939779, -0.873892, -0.002920, 1.935756

149504325.466872, -0.984409, 0.102320, 0.014355, -0.031260, -0.758675, 0.639106, -6.615301, -53.415020, 17.333502, -0.886800, -0.001246, 1.932147

149504325.468225, -1.282206, 0.069639, -0.059254, -0.031260, -0.758675, 0.639106, -6.637533, -53.661125, 16.451973, -0.903445, -0.000672, 1.928175

149504325.469578, -1.567786, 0.197309, -0.161879, 0.014889, -0.928990, 0.607930, -6.655319, -53.858009, 15.746749, -0.925968, -0.001076, 1.926129

149504325.470930, -0.863458, 0.706160, -0.150884, 0.014889, -0.928990, 0.607930, -6.669548, -54.240005, 14.762738, -0.938717, 0.002624, 1.918359

149504325.472284, -0.579711, 0.445015, -0.088270, -0.046891, -0.836091, 0.342935, -6.680931, -54.545605, 13.975530, -0.951331, 0.005870, 1.915101

149504325.473636, -0.527482, 0.071777, -0.010690, 0.014889, -0.836091, 0.514402, -6.690038, -54.790085, 13.345763, -0.959668, 0.005845, 1.915510

149504325.474987, -0.478307, 0.004581, 0.054062, 0.014889, -0.836091, 0.514402, -6.738396, -54.904034, 12.562062, -0.967181, 0.006021, 1.916875

149504325.476339, -0.574213, 0.259007, -0.018326, -0.015630, -0.867058, 0.452051, -6.777082, -54.995193, 11.935102, -0.977275, 0.007916, 1.914569

149504325.477692, -0.595594, 0.199142, 0.004581, -0.000000, -0.805125, 0.514402, -6.808031, -55.129345, 11.083673, -0.985691, 0.009279, 1.911990

149504325.479046, -0.769690, 0.044899, 0.011606, -0.000000, -0.805125, 0.514402, -6.832790, -55.236668, 10.402531, -0.996239, 0.009551, 1.911051

149504325.480396, -1.564426, 0.213497, -0.156076, -0.000000, -0.836091, 0.514402, -6.852598, -55.322525, 9.857616, -1.017433, 0.009125, 1.907179

149504325.481747, -1.897653, 0.333227, -0.215025, -0.000000, -0.882541, 0.436463, -6.827371, -55.513660, 8.931882, -1.044485, 0.008732, 1.902999

149504325.483099, -2.069000, 0.397368, -0.228464, -0.000000, -0.882541, 0.436463, -6.807189, -55.666569, 8.191294, -1.073280, 0.008481, 1.897764

149504325.484449, -1.941941, 0.475864, -0.118508, -0.000000, -0.913507, 0.311759, -6.729434, -55.829712, 6.712512, -1.102371, 0.009574, 1.895358

149504325.485800, -1.725083, 0.392175, -0.036652, -0.000000, -0.913507, 0.311759, -6.667231, -55.960228, 5.529487, -1.128026, 0.011056, 1.893555

149504325.487166, -1.463633, 0.275806, 0.025045, -0.000000, -0.959957, 0.280583, -6.617468, -56.064640, 4.583066, -1.150792, 0.012406, 1.894437

149504325.488522, -1.085202, -0.025962, 0.171348, -0.000000, -0.944474, 0.342935, -6.577658, -56.209393, 3.289479, -1.166618, 0.014069, 1.896946

149504325.489879, -1.060462, -0.113621, 0.189063, -0.000000, -0.944474, 0.342935, -6.545810, -56.325195, 2.254609, -1.181805, 0.015509, 1.900094

149504325.491232, -1.119411, -0.088270, 0.146913, -0.000000, -0.851574, 0.436463, -6.540868, -56.377022, 0.913585, -1.194935, 0.016498, 1.900474

149504325.492582, -1.487457, 0.161879, -0.017715, -0.015630, -0.867058, 0.374111, -6.536915, -56.418484, -0.159234, -1.214024, 0.017006, 1.896742

149504325.493932, -1.665524, 0.332616, -0.114537, -0.015630, -0.867058, 0.374111, -6.533752, -56.451653, -1.017489, -1.235126, 0.017003, 1.890355

149504325.495304, -1.613600, 0.460592, -0.113926, -0.031260, -0.975440, 0.155879, -6.551758, -56.580227, -2.287193, -1.260484, 0.017678, 1.885718

149504325.496660, -1.356732, 0.492052, 0.067501, -0.031260, -0.975440, 0.155879, -6.566163, -56.683086, -3.302956, -1.281665, 0.020665, 1.880960

149504325.498021, -1.144761, -0.063225, 0.159436, -0.046891, -0.990923, 0.233819, -6.598223, -56.500069, -4.675342, -1.298033, 0.023014, 1.880776

149504325.499391, -1.208597, -0.077274, 0.187841, -0.000000, -0.913507, 0.296171, -6.623871, -56.353653, -5.773251, -1.313413, 0.024700, 1.881890

149504325.500751, -1.347874, 0.106901, 0.172264, -0.000000, -0.913507, 0.296171, -6.644389, -56.154888, -7.164705, -1.330292, 0.026752, 1.880243

149504325.502106, -1.542435, 0.319788, 0.109345, -0.031260, -0.990923, 0.140292, -6.722413, -55.995876, -8.277869, -1.352866, 0.029224, 1.876322

149504325.503459, -1.431868, 0.167683, 0.119730, -0.015630, -0.913507, 0.187055, -6.784832, -55.868668, -9.168400, -1.372237, 0.030988, 1.874047

149504325.504811, -1.322829, 0.047647, 0.153938, -0.015630, -0.913507, 0.187055, -6.875840, -55.644451, -10.440600, -1.389700, 0.032818, 1.873216

149504325.506165, -1.208597, 0.248928, 0.074220, -0.000000, -0.959957, 0.124704, -6.948647, -55.465080, -11.458361, -1.406866, 0.033680, 1.871252

149504325.507518, -1.128574, 0.393092, 0.045204, -0.093781, -1.037372, -0.045349, -6.965819, -55.158318, -12.715725, -1.426080, 0.036412, 1.864008

149504325.508873, -1.043052, 0.300851, 0.050396, -0.093781, -1.037372, -0.045349, -6.979557, -54.912907, -13.721616, -1.443781, 0.038893, 1.857808

149504325.510229, -0.850324, -0.127976, 0.286801, -0.015630, -0.944474, 0.062352, -6.990547, -54.716579, -14.526329, -1.456206, 0.042005, 1.860712

149504325.511582, -0.951423, -0.091630, 0.237016, -0.015630, -0.944474, 0.062352, -7.163630, -54.457474, -15.566607, -1.469713, 0.044478, 1.862801

149504325.512933, -1.134377, -0.028711, 0.208610, -0.015630, -0.944474, 0.124704, -7.302097, -54.250191, -16.398829, -1.484103, 0.046620, 1.863003

149504325.514286, -1.643838, 0.201586, 0.085521, -0.015630, -0.928990, 0.077940, -7.412870, -53.900692, -17.647705, -1.506081, 0.047355, 1.860335

149504325.515637, -1.850616, 0.425162, -0.048869, -0.015630, -0.928990, 0.077940, -7.501489, -53.621094, -18.646807, -1.530469, 0.046389, 1.854495

149504325.516989, -1.821906, 0.588263, -0.198531, -0.078151, -0.990923, -0.136046, -7.572383, -53.397415, -19.446089, -1.558509, 0.044625, 1.846241

149504325.518345, -1.418124, 0.218079, -0.106901, -0.062521, -0.990923, -0.136046, -7.567490, -52.871532, -20.645290, -1.580447, 0.043533, 1.843863

149504325.519697, -1.250747, 0.028711, -0.046120, -0.062521, -0.990923, -0.136046, -7.563576, -52.450825, -21.604650, -1.599582, 0.043283, 1.843679

149504325.521049, -1.063211, -0.102320, 0.121257, -0.015630, -0.990923, -0.060465, -7.539907, -51.950993, -22.791971, -1.614236, 0.044376, 1.846108

149504325.522401, -0.988075, -0.054672, 0.181427, -0.062521, -0.898024, -0.030233, -7.520973, -51.551128, -23.741827, -1.627077, 0.047291, 1.844686

149504325.523754, -1.128879, 0.036041, 0.193339, -0.062521, -0.898024, -0.030233, -7.505826, -51.231236, -24.501713, -1.641604, 0.050223, 1.841934

149504325.525119, -1.415069, 0.106596, 0.058338, -0.046891, -0.851574, -0.075581, -7.534781, -50.730427, -25.529451, -1.660964, 0.050977, 1.839379

149504325.526471, -1.660026, 0.297797, -0.053451, -0.046891, -0.851574, -0.075581, -7.557944, -50.329777, -26.351643, -1.683124, 0.049936, 1.834371

149504325.527824, -1.760819, 0.635300, -0.268475, 0.014889, -0.959957, -0.196511, -7.350575, -49.764359, -27.732439, -1.708528, 0.043938, 1.830016

149504325.529186, -1.251357, 0.734871, -0.240681, -0.062521, -0.975440, -0.423255, -7.184680, -49.312027, -28.837076, -1.731057, 0.038969, 1.825873

149504325.530537, -0.751364, 0.513738, -0.124311, -0.062521, -0.975440, -0.423255, -7.051964, -48.950161, -29.720787, -1.746265, 0.036156, 1.823257

149504325.531889, -0.343612, -0.213192, 0.091630, -0.062521, -0.990923, -0.256976, -6.904719, -48.456585, -30.544374, -1.752273, 0.038385, 1.824834

149504325.533241, -0.255342, -0.276722, 0.231518, -0.015630, -0.898024, -0.151163, -6.786922, -48.061726, -31.203245, -1.755241, 0.041644, 1.827859

149504325.534593, -0.436463, -0.179900, 0.186925, -0.015630, -0.898024, -0.151163, -6.836440, -47.684612, -31.823637, -1.760589, 0.044028, 1.829562

149504325.535944, -1.118494, 0.112094, -0.060170, -0.046891, -0.898024, -0.196511, -6.876053, -47.382923, -32.319950, -1.775964, 0.043101, 1.826917

149504325.537295, -1.387580, 0.098349, -0.116675, -0.046891, -0.898024, -0.196511, -6.907744, -47.141571, -32.717003, -1.794579, 0.041466, 1.824639

149504325.538648, -1.733941, 0.061697, -0.258701, -0.046891, -0.882541, -0.196511, -6.789343, -46.499508, -33.571095, -1.817456, 0.038126, 1.823102

149504325.540000, -2.016161, 0.283747, -0.258396, -0.000000, -0.990923, -0.287209, -6.694622, -45.985859, -34.254368, -1.844966, 0.033081, 1.821730

149504325.541355, -1.570840, 0.475864, -0.132863, -0.000000, -0.990923, -0.287209, -6.557235, -45.166775, -35.290791, -1.866128, 0.028959, 1.817116

149504325.542709, -0.913854, 0.484722, 0.115759, -0.046891, -0.990923, -0.529069, -6.447326, -44.511509, -36.119930, -1.882365, 0.028555, 1.812789

149504325.544061, -0.557415, 0.268170, 0.192117, -0.062521, -1.021889, -0.468604, -6.359399, -43.987297, -36.783241, -1.892231, 0.030438, 1.808085

149504325.545412, -0.775188, -0.216246, 0.141721, -0.062521, -1.021889, -0.468604, -6.247985, -43.302620, -37.523808, -1.904589, 0.033678, 1.809388

149504325.546762, -1.007928, -0.160963, 0.085521, -0.031260, -0.990923, -0.377906, -6.158854, -42.754879, -38.116261, -1.918480, 0.035375, 1.810666

149504325.548113, -1.413237, -0.009774, -0.064752, -0.000000, -0.898024, -0.408139, -6.149158, -42.030972, -39.010052, -1.938723, 0.033859, 1.812812

149504325.549467, -2.048842, 0.050396, -0.209832, -0.000000, -0.898024, -0.408139, -6.141400, -41.451847, -39.725086, -1.967030, 0.030330, 1.814628

149504325.550818, -2.138639, 0.013134, -0.149967, -0.031260, -0.913507, -0.544185, -6.135195, -40.988548, -40.297112, -1.998145, 0.028341, 1.816745

149504325.552170, -1.755932, 0.008858, 0.032987, -0.031260, -0.913507, -0.544185, -6.068622, -39.964848, -41.267860, -2.023631, 0.028672, 1.817285

149504325.553523, -1.143540, -0.276417, 0.227853, -0.031260, -0.944474, -0.589534, -6.015363, -39.145885, -42.044460, -2.040831, 0.032958, 1.820089

149504325.554874, -0.653015, -0.307571, 0.454178, -0.062521, -0.743192, -0.529069, -6.260264, -38.368267, -42.875656, -2.052397, 0.040961, 1.819775

149504325.556227, -0.549473, -0.444710, 0.598648, -0.062521, -0.743192, -0.529069, -6.456186, -37.746174, -43.540615, -2.062340, 0.051356, 1.820135

149504325.557578, -1.004262, -0.445626, 0.386678, -0.109411, -0.898024, -0.408139, -6.612923, -37.248497, -44.072582, -2.074089, 0.059686, 1.818526

149504325.558931, -1.246165, -0.334754, 0.309709, -0.046891, -0.696743, -0.408139, -6.923140, -36.360561, -44.708069, -2.091033, 0.065412, 1.819136

149504325.560290, -1.523193, -0.102625, 0.155771, -0.046891, -0.696743, -0.408139, -7.171314, -35.650211, -45.216457, -2.111500, 0.067738, 1.818111

149504325.561642, -2.143221, -0.007636, -0.240375, -0.000000, -0.743192, -0.529069, -7.369853, -34.530910, -46.066326, -2.141247, 0.063660, 1.822878

149504325.562991, -2.185370, 0.004276, -0.292910, -0.000000, -0.851574, -0.483720, -7.528684, -33.635471, -46.746220, -2.168887, 0.059170, 1.826052

149504325.564352, -2.047315, 0.008858, -0.189368, -0.000000, -0.851574, -0.483720, -7.655748, -32.919121, -47.290134, -2.194466, 0.055897, 1.828341

149504325.565702, -1.358259, 0.243735, 0.091935, -0.062521, -0.681260, -0.619767, -7.654718, -31.754202, -48.051804, -2.214909, 0.055197, 1.825189

149504325.567053, -0.526260, 0.102320, 0.113621, -0.062521, -0.681260, -0.619767, -7.653894, -30.822268, -48.661137, -2.223866, 0.055834, 1.823096

149504325.568404, -0.390343, 0.152105, 0.181427, -0.062521, -0.774159, -0.604650, -7.550554, -30.035904, -49.195251, -2.229403, 0.056667, 1.818982

149504325.569755, -0.388510, 0.176540, 0.211970, -0.046891, -0.805125, -0.559302, -7.467881, -29.406813, -49.622543, -2.233726, 0.057246, 1.814523

149504325.571122, -0.875675, 0.231518, 0.126755, -0.046891, -0.805125, -0.559302, -7.401743, -28.903540, -49.964378, -2.244545, 0.056437, 1.810101

149504325.572477, -1.288620, 0.362549, -0.069333, -0.015630, -0.696743, -0.755813, -7.307760, -28.011126, -50.401112, -2.264787, 0.051591, 1.810987

149504325.573829, -1.708896, 0.385456, -0.247706, -0.046891, -0.743192, -0.786045, -7.232573, -27.297194, -50.750500, -2.289907, 0.045547, 1.810620

149504325.575182, -2.163379, -0.009774, -0.161879, -0.046891, -0.743192, -0.786045, -7.131351, -26.011763, -51.333221, -2.320405, 0.043969, 1.812990

149504325.576534, -1.768760, 0.120340, -0.096211, -0.031260, -0.805125, -0.861627, -7.050374, -24.983418, -51.799400, -2.345226, 0.041565, 1.814183

149504325.577885, -0.864374, 0.224798, 0.189979, -0.031260, -0.805125, -0.861627, -6.985591, -24.160742, -52.172340, -2.357724, 0.040938, 1.811399

149504325.579241, -0.269697, -0.372628, 0.364076, -0.062521, -0.774159, -0.740697, -7.015911, -23.339336, -52.517342, -2.360825, 0.048187, 1.810186

149504325.580594, -0.226631, -0.275500, 0.444099, -0.015630, -0.665776, -0.634883, -7.040167, -22.682211, -52.793343, -2.363336, 0.054309, 1.809103

149504325.581945, -0.472810, 0.100793, 0.311541, -0.015630, -0.665776, -0.634883, -6.977426, -21.850388, -53.177410, -2.369188, 0.055504, 1.805550

149504325.583300, -1.092533, 0.235794, 0.127365, -0.062521, -0.634810, -0.831394, -6.927234, -21.184929, -53.484665, -2.386279, 0.054505, 1.802013

149504325.584655, -1.328021, 0.041233, 0.044593, -0.031260, -0.712226, -0.770929, -6.887080, -20.652563, -53.730469, -2.404150, 0.054011, 1.801455

149504325.586007, -1.442864, -0.069333, 0.057727, -0.031260, -0.712226, -0.770929, -6.875493, -19.818506, -54.090382, -2.423093, 0.054722, 1.801578

149504325.587358, -1.685988, -0.184787, 0.025351, -0.015630, -0.603844, -0.589534, -6.866223, -19.151262, -54.378311, -2.443765, 0.056072, 1.802884

149504325.588713, -2.115426, 0.025962, -0.023824, -0.046891, -0.665776, -0.906976, -6.879344, -17.821548, -54.795246, -2.473132, 0.055311, 1.803249

149504325.590066, -1.450194, 0.602313, -0.021991, -0.046891, -0.665776, -0.906976, -6.889840, -16.757776, -55.128796, -2.493318, 0.048538, 1.798677

149504325.591418, -0.660040, 0.543975, 0.184787, -0.078151, -0.603844, -0.906976, -6.898237, -15.906759, -55.395634, -2.503555, 0.044731, 1.791194

149504325.592769, -0.237932, -0.344223, 0.438296, -0.078151, -0.603844, -0.906976, -6.904955, -15.042273, -55.609104, -2.507800, 0.052407, 1.788064

149504325.594132, -0.259007, -0.107512, 0.504880, -0.000000, -0.449012, -0.695348, -6.910329, -14.350683, -55.779881, -2.512637, 0.056422, 1.786345

149504325.595486, -0.374766, 0.296270, 0.434936, -0.015630, -0.449012, -0.922092, -6.770875, -13.572922, -56.009800, -2.521413, 0.055402, 1.783917

149504325.596838, -0.988991, 0.307265, 0.211665, -0.015630, -0.449012, -0.922092, -6.659310, -12.950712, -56.193733, -2.538017, 0.052569, 1.783372

149504325.598191, -1.195158, 0.066584, 0.517097, -0.015630, -0.619327, -0.710464, -6.570059, -12.452945, -56.340881, -2.551934, 0.054963, 1.777076

149504325.599547, -1.200656, -0.050396, 0.885449, 0.014889, -0.402562, -0.710464, -6.498658, -11.544527, -56.528568, -2.569759, 0.060408, 1.771398

149504325.600899, -3.238197, 0.711963, 0.240681, 0.014889, -0.402562, -0.710464, -6.441537, -10.817793, -56.678719, -2.614093, 0.052440, 1.767356

149504325.602252, -3.481627, 1.387886, -0.066890, 0.044666, -0.634810, -1.043022, -5.944041, -9.032324, -57.008759, -2.660122, 0.034223, 1.762271

149504325.603603, -1.989588, 1.868637, -0.273057, -0.203192, -0.387079, -1.511626, -5.546044, -7.603948, -57.272789, -2.690644, 0.013281, 1.745354

149504325.604954, 0.579711, -0.483500, -0.103542, -0.187562, -0.387079, -1.511626, -5.227646, -6.461247, -57.484013, -2.686477, 0.021302, 1.742094

149504325.606306, 0.642325, -1.524109, -0.032376, -0.000000, -0.418046, -0.634883, -5.178292, -5.669536, -57.559696, -2.675134, 0.038793, 1.751860

149504325.607656, 0.481667, -1.290453, 0.021991, -0.000000, -0.418046, -0.634883, -5.138808, -5.036167, -57.620243, -2.666092, 0.053375, 1.759476

149504325.609009, 0.103847, -0.600175, -0.011606, -0.062521, -0.340630, -0.665115, -5.209903, -4.529472, -57.692005, -2.664508, 0.060981, 1.760159

149504325.610366, -0.578489, 0.074526, 0.052840, -0.062521, -0.371596, -0.846511, -5.266779, -4.124115, -57.749413, -2.673529, 0.060608, 1.756914

149504325.611718, -0.860709, -0.065668, 0.110872, -0.062521, -0.371596, -0.846511, -5.312280, -3.799830, -57.795338, -2.686067, 0.062222, 1.753910

149504325.613071, -1.106888, -0.072998, 0.113621, -0.062521, -0.247731, -0.952324, -5.389753, -3.071015, -57.855404, -2.704822, 0.063826, 1.752354

149504325.614423, -1.634065, -0.052534, 0.054062, 0.014889, -0.294180, -0.997673, -5.451732, -2.487962, -57.903458, -2.729313, 0.062902, 1.756672

149504325.615776, -1.310001, 0.205251, 0.036957, 0.014889, -0.294180, -0.997673, -5.521851, -1.572540, -57.941898, -2.749122, 0.058825, 1.759394

149504325.617128, -1.194242, -0.296270, -0.110872, -0.109411, -0.402562, -1.027906, -5.577947, -0.840203, -57.972652, -2.765088, 0.062715, 1.758659

149504325.618479, -0.674395, -0.479224, 0.238237, -0.109411, -0.402562, -1.027906, -5.622823, -0.254333, -57.997253, -2.774076, 0.070483, 1.754519

149504325.619831, -0.304516, -0.021991, 0.127365, -0.046891, -0.123865, -0.937208, -5.720333, 0.520485, -57.900314, -2.782899, 0.070583, 1.756123

149504325.621185, -0.460592, 0.413250, -0.078191, -0.000000, -0.216764, -0.937208, -5.798341, 1.140340, -57.822765, -2.791567, 0.063425, 1.759184

149504325.622537, -0.836275, 0.830777, -0.149967, -0.000000, -0.216764, -0.937208, -5.614311, 1.901530, -57.854023, -2.805116, 0.050939, 1.760723

149504325.623888, -0.981966, 0.554666, -0.007636, -0.031260, -0.232248, -1.027906, -5.467087, 2.510482, -57.879028, -2.820507, 0.043474, 1.759531

149504325.625241, -1.191798, 0.200364, 0.021991, -0.109411, -0.278697, -0.937208, -5.349308, 2.997643, -57.899033, -2.836829, 0.042426, 1.753896

149504325.626592, -1.784643, -0.307571, 0.206778, -0.109411, -0.278697, -0.937208, -5.255085, 3.999617, -57.775089, -2.860704, 0.048473, 1.747992

149504325.627943, -2.212554, -0.713185, 0.087354, -0.140672, -0.123865, -0.906976, -5.179706, 4.801197, -57.675938, -2.892358, 0.060434, 1.740587

149504325.629296, -2.722932, -1.032668, -0.061697, -0.031260, -0.294180, -0.937208, -5.468521, 6.360827, -57.433350, -2.927098, 0.072990, 1.744391

149504325.630648, -2.621834, -0.884838, 0.045204, -0.031260, -0.294180, -0.937208, -5.699573, 7.608532, -57.239277, -2.959911, 0.083768, 1.745970

149504325.631999, -1.499369, -0.278555, 0.154243, -0.046891, -0.201281, -0.982557, -5.884415, 8.606695, -57.084019, -2.979475, 0.087007, 1.744430

149504325.633352, -1.142929, -0.236099, 0.170431, -0.046891, -0.201281, -0.982557, -6.134970, 9.935839, -56.796543, -2.993985, 0.089640, 1.742618

149504325.634703, -0.665843, -0.244652, 0.212581, -0.015630, -0.139349, -0.952324, -6.335414, 10.999153, -56.566563, -3.002979, 0.091789, 1.742427

149504325.636054, -0.639881, -0.110567, -0.043677, -0.046891, -0.123865, -0.922092, -6.516305, 12.053886, -56.312607, -3.011475, 0.092335, 1.743609

149504325.637404, -0.728762, -0.006720, -0.218079, -0.046891, -0.123865, -0.922092, -6.661019, 12.897674, -56.109444, -3.020774, 0.091225, 1.746887

149504325.638757, -0.806037, 0.062919, -0.338114, -0.093781, -0.030966, -0.937208, -6.776790, 13.572703, -55.946915, -3.032805, 0.090125, 1.749331

149504325.640111, -1.201267, -0.049786, -0.343917, -0.109411, -0.015483, -1.027906, -6.889943, 14.561707, -55.700268, -3.050185, 0.090732, 1.751674

149504325.641466, -1.414459, -0.244041, -0.254731, -0.109411, -0.015483, -1.027906, -6.980465, 15.352909, -55.502953, -3.070133, 0.094054, 1.753064

149504325.642816, -1.570535, -0.380264, -0.266948, -0.109411, -0.046450, -0.861627, -7.155565, 16.475668, -55.181831, -3.090858, 0.099498, 1.753561

149504325.644168, -1.548238, -0.112094, -0.043982, -0.109411, -0.046450, -0.861627, -7.295644, 17.373875, -54.924934, -3.111204, 0.101452, 1.750999

149504325.645519, 0.014661, 0.098960, 0.211054, -0.093781, -0.108382, -1.073254, -7.407708, 18.092440, -54.719418, -3.109899, 0.099893, 1.746947

149504325.646882, -0.046426, 0.241903, 0.011912, -0.093781, -0.108382, -1.058138, -7.476823, 18.830557, -54.485031, -3.109142, 0.096388, 1.745510

149504325.648241, -0.162490, 0.689361, -0.264505, -0.093781, -0.108382, -1.058138, -7.532115, 19.421051, -54.297523, -3.109617, 0.086888, 1.747611

149504325.649609, -0.077885, 0.768163, -0.392481, -0.156302, -0.030966, -1.073254, -7.391521, 19.913855, -54.147518, -3.110185, 0.077587, 1.748663

149504325.650975, 0.052229, 0.593456, -0.410807, -0.109411, 0.031033, -1.012789, -7.279046, 20.308096, -54.027512, -3.110296, 0.070135, 1.751862

149504325.652333, -0.071471, 0.061697, -0.321621, -0.109411, 0.031033, -1.012789, -7.189065, 20.623489, -53.931507, -3.112142, 0.069999, 1.753892

149504325.653686, -0.151495, 0.024740, -0.338419, -0.062521, 0.046549, -0.967441, -7.158154, 20.916620, -53.878029, -3.115388, 0.069427, 1.758609

149504325.655039, -0.245568, 0.081245, -0.356440, -0.015630, -0.015483, -1.012789, -7.133425, 21.151125, -53.835243, -3.118495, 0.067147, 1.765152

149504325.656392, -0.420581, 0.170431, -0.356134, -0.015630, -0.015483, -1.012789, -7.031496, 21.379545, -53.731045, -3.123883, 0.063756, 1.771404

149504325.657744, -0.481667, 0.197309, -0.363465, -0.062521, 0.000000, -1.073254, -6.949953, 21.562283, -53.647686, -3.130319, 0.060965, 1.775681

149504325.659096, -0.437685, 0.138056, -0.343612, -0.062521, 0.000000, -1.073254, -6.884719, 21.708471, -53.580997, -3.136073, 0.059043, 1.779558

149504325.660450, -0.405309, -0.002443, -0.268781, -0.000000, 0.000000, -0.982557, -6.914677, 21.988688, -53.457676, -3.141296, 0.057885, 1.785051

149504325.661803, -0.449597, 0.014966, -0.209527, -0.031260, 0.000000, -0.967441, -6.938643, 22.212860, -53.359020, 3.136086, 0.057183, 1.788159

149504325.663169, -0.340863, 0.070860, -0.163101, -0.031260, 0.000000, -0.967441, -6.978353, 22.596281, -53.256771, 3.131759, 0.055754, 1.790579

149504325.664521, -0.174402, 0.198531, -0.141721, -0.015630, 0.015516, -0.967441, -7.010120, 22.903017, -53.174973, 3.129446, 0.052351, 1.793528

149504325.665871, -0.022907, 0.186619, -0.116675, -0.125042, 0.077582, -0.982557, -7.035534, 23.148407, -53.109531, 3.128063, 0.051513, 1.790803

149504325.667223, 0.031154, 0.076664, -0.104153, -0.125042, 0.077582, -0.982557, -6.994256, 23.242678, -53.033855, 3.127412, 0.052144, 1.787916

149504325.668572, 0.032681, -0.013744, -0.065668, -0.031260, 0.015516, -0.967441, -6.961234, 23.318094, -52.973316, 3.127855, 0.051941, 1.789019

149504325.669926, 0.026267, 0.083689, -0.119119, -0.000000, 0.015516, -0.997673, -6.914280, 23.439651, -52.878235, 3.128287, 0.049812, 1.792186

149504325.671282, 0.003360, 0.201891, -0.219301, -0.000000, 0.015516, -0.997673, -6.876717, 23.536898, -52.802170, 3.128462, 0.046171, 1.796592

149504325.672635, -0.002749, 0.275195, -0.292604, -0.046891, 0.031033, -0.967441, -6.846666, 23.614695, -52.741318, 3.128223, 0.042625, 1.799839

149504325.673986, -0.142637, 0.147524, -0.236099, -0.046891, 0.031033, -0.967441, -6.822625, 23.676933, -52.739285, 3.126096, 0.040839, 1.802218

149504325.675338, -0.117592, 0.066890, -0.156382, 0.014889, -0.015483, -1.043022, -6.803393, 23.726723, -52.737659, 3.125263, 0.038905, 1.805673

149504325.676690, -0.014661, 0.006109, -0.101404, 0.014889, 0.000000, -1.058138, -6.808543, 23.766556, -52.736359, 3.125485, 0.037799, 1.808482

149504325.678042, 0.019242, -0.022297, -0.065973, 0.014889, 0.000000, -1.058138, -6.812664, 23.798422, -52.735317, 3.126131, 0.037082, 1.810754

149504325.679393, 0.121868, -0.089492, -0.019853, -0.000000, 0.031033, -0.997673, -6.815960, 23.823914, -52.734486, 3.127462, 0.037519, 1.812159

149504325.680746, 0.131031, -0.076969, -0.033292, -0.015630, 0.000000, -0.997673, -6.818597, 23.803492, -52.733818, 3.129500, 0.038110, 1.812695

149504325.682099, 0.121868, -0.049786, -0.038179, -0.015630, 0.000000, -0.997673, -6.820706, 23.787153, -52.733284, 3.131378, 0.038327, 1.813296

149504325.683451, 0.162490, 0.113316, -0.086743, -0.000000, 0.046549, -0.952324, -6.801858, 23.733267, -52.732857, 3.132827, 0.036043, 1.815824

149504325.684802, 0.108123, 0.160963, -0.092241, -0.000000, 0.046549, -0.952324, -6.786779, 23.690157, -52.732517, 3.133522, 0.033175, 1.818376

149504325.686154, 0.067806, 0.176845, -0.095906, -0.000000, 0.046549, -1.012789, -6.774716, 23.655670, -52.732243, 3.133722, 0.030156, 1.820886

149504325.687506, 0.066279, 0.043066, -0.011912, -0.015630, 0.046549, -0.997673, -6.723993, 23.648487, -52.778671, 3.133832, 0.029288, 1.821461

149504325.688857, 0.047037, 0.009163, 0.019853, -0.015630, 0.046549, -0.997673, -6.683414, 23.642742, -52.815815, 3.133673, 0.028885, 1.821568

149504325.690211, -0.001527, 0.057727, -0.005803, -0.000000, 0.031033, -0.982557, -6.527733, 23.658554, -52.845531, 3.133192, 0.027533, 1.822403

149504325.691566, -0.080329, 0.236405, -0.100182, -0.046891, 0.062065, -0.982557, -6.403189, 23.671204, -52.869305, 3.131084, 0.024844, 1.822458

149504325.692917, -0.083078, 0.257480, -0.116981, -0.046891, 0.062065, -0.982557, -6.303553, 23.681322, -52.888321, 3.128989, 0.021943, 1.822645

149504325.694272, -0.090103, 0.168904, -0.070250, -0.031260, 0.031033, -0.982557, -6.244380, 23.689417, -52.880211, 3.127438, 0.019917, 1.822640

149504325.695624, -0.145386, -0.028711, 0.042150, -0.031260, 0.015516, -1.027906, -6.197042, 23.695894, -52.873722, 3.125487, 0.020498, 1.820985

149504325.696975, -0.133474, -0.038485, 0.061697, -0.031260, 0.015516, -1.027906, -6.200245, 23.741892, -52.798561, 3.123728, 0.021190, 1.819098

149504325.698327, -0.115759, -0.054978, 0.074831, -0.062521, 0.031033, -1.012789, -6.202807, 23.778690, -52.738430, 3.121963, 0.022721, 1.815735

149504325.699678, -0.122173, -0.100182, 0.091019, -0.062521, 0.031033, -1.012789, -6.204856, 23.808128, -52.690327, 3.120139, 0.024809, 1.812214

149504325.701032, -0.137139, -0.070860, 0.107512, -0.000000, 0.000000, -1.027906, -6.185960, 23.892904, -52.698490, 3.118716, 0.025224, 1.811011

149504325.702385, -0.100487, 0.014050, 0.112094, -0.000000, 0.031033, -0.982557, -6.170842, 23.960724, -52.705021, 3.117180, 0.024496, 1.810125

149504325.703735, -0.100182, 0.058338, 0.143859, -0.000000, 0.031033, -0.982557, -6.158748, 24.035389, -52.663597, 3.115673, 0.023185, 1.808828

149504325.705087, -0.119119, 0.024129, 0.160963, -0.046891, 0.015516, -1.012789, -6.149073, 24.095121, -52.630459, 3.114276, 0.023260, 1.805086

149504325.706439, -0.154243, -0.009468, 0.143248, -0.031260, 0.015516, -0.997673, -6.141333, 24.142906, -52.603951, 3.112427, 0.023487, 1.802294

149504325.707790, -0.157603, -0.040317, 0.113621, -0.031260, 0.015516, -0.997673, -6.073532, 24.283175, -52.559418, 3.110579, 0.024125, 1.799861

149504325.709143, -0.201891, -0.066584, 0.051007, -0.031260, 0.046549, -0.997673, -6.019291, 24.395390, -52.523792, 3.107576, 0.025132, 1.798485

149504325.710495, -0.188147, -0.024129, -0.003054, -0.031260, 0.015516, -1.027906, -6.058044, 24.505569, -52.401997, 3.105463, 0.025550, 1.797671

149504325.711850, -0.131947, 0.034819, -0.061087, -0.031260, 0.015516, -1.027906, -6.089046, 24.593714, -52.304558, 3.104155, 0.025206, 1.797685

149504325.713202, -0.070250, -0.072998, -0.023213, -0.000000, 0.046549, -0.982557, -6.113848, 24.664228, -52.226608, 3.103044, 0.025677, 1.798798

149504325.714554, -0.105680, -0.093462, 0.006720, -0.000000, 0.046549, -0.982557, -6.113153, 24.700233, -52.187572, 3.101475, 0.026394, 1.799472

149504325.715905, -0.114843, -0.079412, 0.025962, -0.000000, 0.046549, -0.982557, -6.112597, 24.729036, -52.156345, 3.099810, 0.026901, 1.799877

149504325.717257, -0.128587, -0.145386, 0.078191, -0.031260, 0.031033, -1.027906, -6.173761, 24.874527, -52.178009, 3.098308, 0.028846, 1.798048

149504325.718608, -0.197004, -0.197309, 0.101709, -0.031260, 0.031033, -1.027906, -6.222692, 24.990921, -52.195343, 3.095917, 0.031422, 1.795932

149504325.719960, -0.231823, -0.206472, 0.116981, -0.031260, 0.077582, -0.967441, -6.261837, 25.084036, -52.209209, 3.092104, 0.034099, 1.794023

149504325.721314, -0.225409, -0.138056, 0.076969, -0.000000, 0.077582, -0.982557, -6.272617, 25.280975, -52.150330, 3.088510, 0.035178, 1.794215

149504325.722666, -0.146302, -0.149357, 0.115454, -0.000000, 0.077582, -0.982557, -6.281241, 25.438528, -52.103226, 3.086022, 0.036353, 1.793849

149504325.724027, -0.170126, -0.127365, 0.127060, -0.000000, 0.031033, -0.982557, -6.288140, 25.605387, -51.995571, 3.084180, 0.037235, 1.792744

149504325.725382, -0.110872, -0.080023, 0.120035, -0.000000, 0.031033, -0.982557, -6.293659, 25.738873, -51.909447, 3.083175, 0.037468, 1.791772

149504325.726735, -0.042761, 0.011912, 0.090713, -0.031260, 0.077582, -0.997673, -6.298075, 25.845661, -51.840549, 3.082179, 0.037117, 1.790344

149504325.728088, -0.021075, 0.045509, 0.073304, -0.031260, 0.062065, -0.982557, -6.322143, 25.931093, -51.738781, 3.081791, 0.036350, 1.789055

149504325.729439, 0.010385, 0.035736, 0.063835, -0.031260, 0.062065, -0.982557, -6.341398, 25.999439, -51.657368, 3.081833, 0.035736, 1.787917

149504325.730793, 0.008858, -0.024740, 0.062003, -0.031260, 0.108614, -0.997673, -6.356802, 26.115339, -51.638885, 3.080947, 0.035918, 1.787235

149504325.732167, 0.027794, 0.018631, 0.020159, -0.062521, 0.093098, -0.982557, -6.369125, 26.208059, -51.624100, 3.080658, 0.036224, 1.785424

149504325.733520, 0.041539, 0.058948, -0.029932, -0.062521, 0.093098, -0.982557, -6.378983, 26.282236, -51.612270, 3.080576, 0.036034, 1.784348

149504325.734872, 0.058338, 0.021991, -0.064141, -0.031260, 0.093098, -0.967441, -6.325261, 26.321169, -51.672779, 3.080681, 0.035718, 1.785195

149504325.736224, 0.031154, 0.010996, -0.067195, -0.000000, 0.077582, -0.997673, -6.282283, 26.352316, -51.721184, 3.080813, 0.034902, 1.787300

149504325.737576, 0.021075, 0.043066, -0.067501, -0.000000, 0.077582, -0.997673, -6.268437, 26.336416, -51.689938, 3.080807, 0.033679, 1.789384

149504325.738926, 0.017104, 0.162796, -0.122478, -0.031260, 0.093098, -0.982557, -6.257361, 26.323696, -51.664940, 3.080417, 0.031590, 1.790963

149504325.740281, 0.010690, 0.085216, -0.086743, -0.031260, 0.093098, -0.982557, -6.248499, 26.313520, -51.644943, 3.079931, 0.030536, 1.791974

149504325.741634, -0.032681, 0.007025, -0.033903, -0.000000, 0.077582, -1.027906, -6.179801, 26.346197, -51.628944, 3.079252, 0.029854, 1.793388

149504325.742986, -0.034514, -0.019548, 0.011912, -0.000000, 0.062065, -0.982557, -6.124843, 26.372337, -51.616146, 3.078786, 0.029506, 1.793954

149504325.744338, -0.056505, -0.037263, 0.089797, -0.000000, 0.062065, -0.982557, -6.121949, 26.434067, -51.629230, 3.078006, 0.029333, 1.793447

149504325.745688, -0.078802, -0.076664, 0.110261, -0.078151, 0.062065, -1.058138, -6.119634, 26.483450, -51.639698, 3.077072, 0.031129, 1.789344

149504325.747041, -0.071471, -0.119119, 0.108734, -0.062521, 0.077582, -0.997673, -6.117782, 26.522957, -51.648071, 3.075842, 0.033246, 1.785890

149504325.748391, -0.000305, -0.116064, 0.068111, -0.062521, 0.077582, -0.997673, -6.136836, 26.513746, -51.584801, 3.075592, 0.035313, 1.783066

149504325.749741, -0.001833, -0.063530, 0.028405, -0.078151, 0.077582, -1.027906, -6.152080, 26.506378, -51.534184, 3.075412, 0.036944, 1.780252

149504325.751095, -0.006414, -0.005192, -0.015577, -0.078151, 0.077582, -0.982557, -6.102665, 26.520891, -51.470364, 3.075135, 0.037884, 1.777932

149504325.752448, 0.010079, 0.103542, -0.067806, -0.000000, 0.062065, -0.982557, -6.063134, 26.532501, -51.419308, 3.075389, 0.035819, 1.779884

149504325.753799, -0.032681, 0.120951, -0.069028, -0.000000, 0.046549, -0.997673, -6.031509, 26.541790, -51.378464, 3.075396, 0.033572, 1.781629

149504325.755164, -0.041844, 0.100487, -0.057421, -0.000000, 0.046549, -0.997673, -6.067818, 26.549221, -51.345791, 3.075267, 0.031617, 1.783203

149504325.756516, -0.061392, 0.067501, -0.038790, -0.000000, 0.046549, -1.012789, -6.096865, 26.555164, -51.319653, 3.074889, 0.030134, 1.784476

149504325.757866, -0.018631, 0.051313, -0.041844, -0.031260, 0.093098, -0.997673, -6.058494, 26.580328, -51.298740, 3.074134, 0.029518, 1.784790

149504325.759219, 0.005803, 0.033292, -0.038179, -0.031260, 0.093098, -0.997673, -6.027797, 26.600460, -51.282009, 3.073715, 0.029150, 1.785003

149504325.760572, 0.007025, 0.075442, -0.076664, -0.000000, 0.093098, -0.982557, -6.003240, 26.616566, -51.268627, 3.073323, 0.027623, 1.787202

149504325.761927, 0.004276, 0.077580, -0.093768, 0.014889, 0.062065, -0.982557, -6.065739, 26.670267, -51.281242, 3.073547, 0.025829, 1.789899

149504325.763278, -0.015577, 0.064446, -0.090408, 0.014889, 0.062065, -0.982557, -6.115738, 26.713228, -51.291336, 3.073498, 0.024244, 1.792513

149504325.764629, -0.015272, 0.120035, -0.110567, -0.000000, 0.062065, -0.982557, -6.011983, 26.747597, -51.322735, 3.073439, 0.022274, 1.794666

149504325.765980, 0.006720, 0.167683, -0.106596, -0.000000, 0.062065, -0.982557, -5.928979, 26.775091, -51.347855, 3.073667, 0.019712, 1.796695

149504325.767332, -0.010385, 0.109650, -0.059865, -0.000000, 0.062065, -0.982557, -5.862576, 26.797087, -51.367950, 3.073646, 0.017923, 1.797956

149504325.768682, -0.010996, 0.087965, -0.038485, -0.000000, 0.062065, -0.997673, -5.809454, 26.773867, -51.314056, 3.073629, 0.016439, 1.798841

149504325.770032, -0.010996, 0.050702, -0.017104, -0.000000, 0.062065, -0.997673, -5.766956, 26.755291, -51.270939, 3.073607, 0.015457, 1.799361

149504325.771386, 0.040317, 0.094073, -0.036652, 0.014889, 0.077582, -0.982557, -5.650812, 26.760838, -51.259769, 3.073948, 0.013628, 1.800910

149504325.772740, 0.058338, 0.108429, -0.046426, 0.014889, 0.077582, -0.997673, -5.557897, 26.765276, -51.250835, 3.074543, 0.011659, 1.802468

149504325.774093, 0.010690, 0.036346, -0.009774, 0.014889, 0.077582, -0.997673, -5.483565, 26.768826, -51.243687, 3.074485, 0.010652, 1.803383

149504325.775444, 0.012828, 0.043677, -0.010385, 0.014889, 0.077582, -0.952324, -5.444635, 26.771666, -51.237968, 3.074383, 0.009554, 1.804336

149504325.776795, 0.007025, 0.066279, -0.006109, -0.000000, 0.093098, -0.982557, -5.413492, 26.773937, -51.233395, 3.073933, 0.008491, 1.804666

149504325.778147, -0.049480, 0.048564, 0.018326, -0.000000, 0.093098, -0.982557, -5.347504, 26.755346, -51.229733, 3.072740, 0.007661, 1.804598

149504325.779499, -0.057421, 0.020769, 0.044288, -0.000000, 0.077582, -0.982557, -5.294714, 26.740475, -51.226803, 3.071776, 0.007193, 1.803953

149504325.780852, -0.030238, -0.008858, 0.048869, -0.000000, 0.077582, -0.982557, -5.252482, 26.728577, -51.224461, 3.071191, 0.007122, 1.803199

149504325.782206, -0.023824, -0.098655, 0.061392, -0.015630, 0.093098, -1.043022, -5.218697, 26.780283, -51.245911, 3.070498, 0.008532, 1.801593

149504325.783558, -0.025045, -0.070555, 0.043066, -0.031260, 0.077582, -0.982557, -5.191669, 26.821648, -51.263069, 3.070023, 0.009892, 1.799404

149504325.784909, 0.011606, -0.006414, 0.010079, -0.031260, 0.077582, -0.982557, -5.211118, 26.875147, -51.300121, 3.070047, 0.010409, 1.797764

149504325.786261, 0.003054, 0.035430, -0.009468, -0.000000, 0.077582, -0.997673, -5.226678, 26.917946, -51.329765, 3.069968, 0.009742, 1.797879

149504325.787611, -0.034208, 0.025656, 0.003360, -0.015630, 0.046549, -1.043022, -5.239126, 26.952187, -51.353477, 3.070058, 0.009492, 1.796892

149504325.788962, -0.025351, 0.000305, 0.007636, -0.015630, 0.046549, -1.043022, -5.249084, 27.020395, -51.349125, 3.070263, 0.009577, 1.795842

149504325.790314, -0.006414, 0.010690, -0.002443, -0.000000, 0.062065, -1.012789, -5.257051, 27.074963, -51.345642, 3.070379, 0.009246, 1.795718

149504325.791668, 0.021991, 0.054367, -0.014661, -0.000000, 0.062065, -1.012789, -5.181279, 27.098207, -51.366180, 3.070873, 0.008355, 1.795734

149504325.793020, 0.033598, 0.087048, -0.032987, -0.015630, 0.062065, -1.027906, -5.120662, 27.116804, -51.382610, 3.071534, 0.007367, 1.795315

149504325.794371, 0.052229, 0.111177, -0.052229, -0.015630, 0.093098, -0.997673, -5.072168, 27.131681, -51.395756, 3.071774, 0.006120, 1.795382

149504325.795723, 0.025351, 0.056810, -0.043982, -0.015630, 0.093098, -0.997673, -5.012836, 27.123175, -51.336300, 3.071653, 0.005608, 1.795239

149504325.797073, 0.025351, -0.014355, -0.019242, -0.000000, 0.093098, -0.997673, -4.965371, 27.116369, -51.288734, 3.071528, 0.005704, 1.795384

149504325.798423, 0.024129, -0.044288, -0.013134, 0.014889, 0.077582, -0.982557, -4.968472, 27.049700, -51.250683, 3.071678, 0.005883, 1.795954

149504325.799789, 0.031154, -0.065057, 0.007330, 0.014889, 0.077582, -0.982557, -4.970952, 26.996365, -51.220242, 3.071921, 0.006323, 1.796234

149504325.801167, 0.020769, -0.063225, 0.008552, -0.000000, 0.062065, -0.997673, -4.972936, 26.953697, -51.195889, 3.072350, 0.007039, 1.795684

149504325.802525, 0.025351, -0.059254, 0.017410, -0.015630, 0.077582, -1.027906, -5.015596, 26.939972, -51.129757, 3.072567, 0.007975, 1.794520

149504325.803880, 0.013439, -0.042150, 0.009163, -0.015630, 0.077582, -1.027906, -5.049725, 26.928991, -51.076851, 3.072620, 0.008671, 1.793537

149504325.805234, 0.029016, -0.008858, -0.004276, -0.000000, 0.093098, -0.997673, -5.056490, 26.961021, -51.081177, 3.072525, 0.008619, 1.793627

149504325.806586, 0.041233, 0.051313, -0.039401, -0.000000, 0.093098, -0.997673, -5.061903, 26.986647, -51.084637, 3.072596, 0.007804, 1.794235

149504325.807938, 0.047037, 0.100793, -0.066279, -0.015630, 0.108614, -0.997673, -5.066234, 27.007147, -51.087406, 3.072440, 0.006699, 1.794653

149504325.809289, 0.006414, 0.081245, -0.056200, -0.000000, 0.077582, -0.997673, -5.049161, 26.982731, -51.112942, 3.072361, 0.005543, 1.795326

149504325.810641, 0.014661, 0.108429, -0.058338, -0.000000, 0.077582, -0.997673, -5.035504, 26.963198, -51.133373, 3.072391, 0.004054, 1.796031

149504325.811996, 0.014966, 0.083383, -0.036041, -0.000000, 0.077582, -0.997673, -4.983505, 26.967979, -51.196365, 3.072423, 0.002902, 1.796363

149504325.813349, -0.004581, -0.023518, 0.016799, -0.000000, 0.093098, -0.982557, -4.941906, 26.971806, -51.246758, 3.071856, 0.003141, 1.796023

149504325.814702, 0.005803, -0.043066, 0.027489, -0.000000, 0.093098, -0.982557, -4.908627, 26.974865, -51.287071, 3.071437, 0.003624, 1.795501

149504325.816054, -0.008858, -0.029932, 0.030238, 0.014889, 0.062065, -0.997673, -4.861467, 27.018129, -51.249352, 3.071480, 0.003622, 1.795244

149504325.817406, 0.000305, -0.014355, 0.039401, -0.000000, 0.093098, -0.982557, -4.823739, 27.052742, -51.219177, 3.070995, 0.003705, 1.794518

149504325.818758, -0.006414, -0.039706, 0.046120, -0.000000, 0.093098, -0.982557, -4.793557, 27.060022, -51.218361, 3.070430, 0.004115, 1.793666

149504325.820109, -0.005498, -0.027184, 0.028100, -0.000000, 0.093098, -0.982557, -4.769411, 27.065847, -51.217709, 3.069889, 0.004367, 1.793059

149504325.821463, -0.010079, 0.007025, 0.012217, -0.000000, 0.093098, -0.982557, -4.750094, 27.070507, -51.217186, 3.069299, 0.004178, 1.792689

149504325.822816, -0.004581, 0.016493, 0.018937, -0.031260, 0.108614, -0.997673, -4.755177, 27.013010, -51.263416, 3.068535, 0.004508, 1.790893

149504325.824168, 0.000916, 0.010690, 0.020159, -0.000000, 0.062065, -1.012789, -4.759244, 26.967012, -51.300400, 3.068782, 0.004254, 1.790186

149504325.825520, 0.008858, -0.005498, 0.014661, -0.000000, 0.062065, -1.012789, -4.783033, 26.991440, -51.236691, 3.069130, 0.004226, 1.789566

149504325.826871, 0.035736, -0.032681, 0.028100, -0.000000, 0.093098, -0.997673, -4.802065, 27.010981, -51.185722, 3.069189, 0.004547, 1.789059

149504325.828223, 0.014966, -0.040623, 0.036652, -0.000000, 0.077582, -0.967441, -4.817290, 27.026613, -51.144947, 3.069232, 0.004958, 1.788326

149504325.829574, 0.003665, -0.031154, 0.038179, -0.000000, 0.077582, -0.967441, -4.829471, 27.018711, -51.205624, 3.069124, 0.005235, 1.787609

149504325.830924, -0.006414, -0.012217, 0.049480, 0.014889, 0.093098, -0.997673, -4.839215, 27.012390, -51.254166, 3.068631, 0.004940, 1.787589

149504325.832279, -0.014355, -0.006414, 0.049786, 0.014889, 0.093098, -0.997673, -4.826474, 26.986925, -51.269676, 3.068042, 0.004574, 1.787564

149504325.833631, -0.031460, 0.003665, 0.051924, -0.000000, 0.077582, -0.982557, -4.816281, 26.966555, -51.282082, 3.067517, 0.004384, 1.786701

149504325.834985, -0.028405, 0.003971, 0.038179, -0.000000, 0.077582, -0.997673, -4.808126, 26.950258, -51.292007, 3.067067, 0.004207, 1.786023

149504325.836336, 0.000000, 0.032987, 0.016493, -0.000000, 0.077582, -0.997673, -4.842676, 27.039261, -51.253300, 3.067005, 0.003671, 1.785686

149504325.837687, 0.007636, 0.070555, -0.014966, -0.000000, 0.077582, -0.997673, -4.870315, 27.110462, -51.222336, 3.067046, 0.002682, 1.785818

149504325.839039, 0.018631, 0.144470, -0.045815, 0.014889, 0.093098, -0.967441, -4.830818, 27.147015, -51.267536, 3.066872, 0.000450, 1.787267

149504325.840391, 0.033598, 0.123395, -0.034819, 0.014889, 0.093098, -0.967441, -4.799220, 27.176258, -51.303696, 3.066897, -0.001468, 1.788490

149504325.841743, 0.025351, 0.024740, 0.007941, 0.014889, 0.062065, -1.012789, -4.773942, 27.199652, -51.332623, 3.067504, -0.002065, 1.788600

149504325.843097, -0.010079, -0.047037, 0.042455, 0.014889, 0.077582, -1.043022, -4.630501, 27.197960, -51.355766, 3.067369, -0.001728, 1.788177

149504325.844448, 0.037874, -0.012217, 0.025962, 0.014889, 0.077582, -1.043022, -4.515748, 27.196606, -51.374279, 3.067872, -0.001842, 1.787925

149504325.845799, 0.059865, -0.017410, 0.026573, 0.014889, 0.062065, -0.952324, -4.526628, 27.215931, -51.342442, 3.068838, -0.001913, 1.787636

149504325.847164, 0.032987, -0.058032, 0.060476, 0.014889, 0.062065, -0.952324, -4.535331, 27.231390, -51.316971, 3.069435, -0.001470, 1.786862

149504325.848515, 0.037568, -0.014661, 0.040317, 0.014889, 0.093098, -1.027906, -4.542295, 27.243757, -51.296597, 3.069572, -0.001577, 1.786630

149504325.849866, 0.022297, -0.035736, 0.047647, -0.015630, 0.062065, -1.012789, -4.506792, 27.212835, -51.233646, 3.070095, -0.000817, 1.784698

149504325.851220, 0.036041, -0.063835, 0.061392, -0.015630, 0.062065, -1.012789, -4.478390, 27.188097, -51.183289, 3.070788, 0.000288, 1.782576

149504325.852575, 0.052229, -0.145080, 0.077580, -0.015630, 0.093098, -1.012789, -4.517278, 27.168306, -51.236298, 3.071069, 0.002448, 1.780455

149504325.853926, 0.025351, -0.159436, 0.075747, -0.000000, 0.093098, -0.997673, -4.548388, 27.152473, -51.278706, 3.070950, 0.004436, 1.779141

149504325.855278, 0.052229, -0.112705, 0.049175, -0.000000, 0.093098, -0.997673, -4.573276, 27.139809, -51.312630, 3.071190, 0.005793, 1.778271

149504325.856629, 0.080329, -0.043066, 0.024435, 0.014889, 0.062065, -0.997673, -4.593186, 27.129677, -51.316444, 3.072419, 0.005926, 1.778191

149504325.857981, 0.090713, -0.065363, 0.041233, 0.014889, 0.062065, -0.997673, -4.609115, 27.121571, -51.319496, 3.073762, 0.006338, 1.777884

149504325.859334, 0.081856, -0.151189, 0.083689, 0.014889, 0.077582, -0.982557, -4.662930, 27.135494, -51.345264, 3.074625, 0.007830, 1.777164

149504325.860685, 0.078496, -0.211054, 0.120035, -0.000000, 0.062065, -0.982557, -4.705982, 27.146633, -51.365879, 3.075725, 0.010357, 1.775161

149504325.862040, 0.119424, -0.219606, 0.111483, -0.000000, 0.062065, -0.982557, -4.740424, 27.155544, -51.382370, 3.077345, 0.012963, 1.773330

149504325.863389, 0.124006, -0.168293, 0.066890, -0.015630, 0.077582, -0.967441, -4.726905, 27.121857, -51.395561, 3.078655, 0.015197, 1.771597

149504325.864740, 0.073915, -0.066279, 0.009163, -0.015630, 0.170680, -0.967441, -4.716090, 27.094906, -51.406116, 3.077398, 0.016066, 1.771660

149504325.866091, 0.074831, -0.063225, -0.024435, -0.015630, 0.170680, -0.967441, -4.769046, 26.991713, -51.414558, 3.076185, 0.016901, 1.772248

149504325.867442, 0.032987, -0.085827, 0.007636, -0.000000, 0.093098, -0.982557, -4.811412, 26.909159, -51.421314, 3.076039, 0.017686, 1.772357

149504325.868791, 0.034208, -0.047953, -0.032376, -0.000000, 0.093098, -1.012789, -4.845304, 26.843115, -51.426720, 3.075979, 0.017989, 1.773038

149504325.870142, 0.083994, -0.020159, -0.107512, -0.000000, 0.093098, -1.012789, -4.913490, 26.810688, -51.454369, 3.076598, 0.017984, 1.774788

149504325.871494, 0.113926, 0.023518, -0.110567, -0.000000, 0.093098, -0.997673, -4.968040, 26.784748, -51.476486, 3.077577, 0.017402, 1.776650

149504325.872847, 0.062003, 0.047953, -0.062003, -0.000000, 0.093098, -0.997673, -5.032215, 26.763996, -51.470856, 3.077836, 0.016466, 1.777913

149504325.874202, 0.122784, -0.071471, -0.060476, -0.015630, 0.093098, -1.012789, -5.083556, 26.747395, -51.466351, 3.078921, 0.017446, 1.778349

149504325.875554, 0.236405, -0.131641, -0.156382, -0.000000, 0.062065, -1.027906, -5.124628, 26.734112, -51.462746, 3.082137, 0.018964, 1.780438

149504325.876904, 0.282525, -0.200364, -0.197920, -0.000000, 0.062065, -1.027906, -5.219095, 26.601036, -51.483189, 3.085910, 0.021382, 1.783087

149504325.878263, 0.273362, -0.223271, -0.210749, -0.015630, 0.062065, -0.982557, -5.294669, 26.494576, -51.499542, 3.089459, 0.024394, 1.785275

149504325.879616, 0.219301, -0.156992, -0.209527, -0.000000, 0.077582, -0.952324, -5.437274, 26.368591, -51.489300, 3.091859, 0.026118, 1.788472

149504325.880968, 0.121868, -0.065973, -0.152716, -0.000000, 0.077582, -0.952324, -5.551357, 26.267805, -51.481106, 3.092902, 0.026559, 1.791032

149504325.882323, -0.003054, -0.008552, -0.055589, 0.014889, 0.046549, -0.997673, -5.642623, 26.187176, -51.474552, 3.092940, 0.025880, 1.792644

149504325.883676, 0.006414, 0.046731, -0.045204, 0.014889, 0.062065, -1.027906, -5.736173, 26.102264, -51.515957, 3.092829, 0.024478, 1.794353

149504325.885029, 0.010996, 0.101098, -0.056505, -0.015630, 0.062065, -1.027906, -5.811013, 26.034334, -51.549080, 3.092763, 0.022991, 1.795002

149504325.886381, 0.037568, 0.071471, -0.036652, -0.015630, 0.077582, -1.012789, -5.850349, 25.979990, -51.622227, 3.092720, 0.021916, 1.795548

149504325.887731, 0.072388, 0.094990, -0.107818, -0.015630, 0.077582, -1.012789, -5.881817, 25.936516, -51.680744, 3.093158, 0.020599, 1.797075

149504325.889090, 0.138056, 0.033292, -0.167683, -0.046891, 0.108614, -1.012789, -5.906992, 25.901735, -51.727558, 3.093891, 0.020806, 1.798154

149504325.890444, 0.138361, -0.161268, -0.227242, -0.015630, 0.062065, -0.982557, -5.968204, 25.833096, -51.788334, 3.095482, 0.022986, 1.800990

149504325.891799, 0.098349, -0.154854, -0.225715, -0.015630, 0.062065, -0.982557, -6.017174, 25.778183, -51.836952, 3.096518, 0.025035, 1.803810

149504325.893155, 0.106596, -0.168293, -0.200058, -0.000000, 0.046549, -0.982557, -6.159032, 25.673029, -51.852524, 3.097963, 0.026886, 1.806899

149504325.894504, 0.095906, -0.192423, -0.147219, 0.029778, 0.031033, -1.027906, -6.272518, 25.588905, -51.864983, 3.099596, 0.028405, 1.810297

149504325.895857, 0.065057, -0.016188, -0.145080, 0.029778, 0.031033, -1.027906, -6.363307, 25.521606, -51.874947, 3.100792, 0.027561, 1.813790

149504325.897209, 0.091324, 0.104763, -0.140804, -0.000000, 0.062065, -0.997673, -6.456475, 25.467768, -51.929569, 3.101637, 0.025689, 1.816507

149504325.898561, 0.083689, 0.204945, -0.125533, -0.000000, 0.062065, -0.997673, -6.531009, 25.424696, -51.973267, 3.102354, 0.022520, 1.819091

149504325.899912, 0.026878, 0.454178, -0.057116, -0.031260, 0.046549, -0.982557, -6.508491, 25.410648, -51.984898, 3.102574, 0.016730, 1.819260

149504325.901264, 0.023824, 0.405004, -0.010079, -0.015630, 0.077582, -0.982557, -6.490476, 25.399410, -51.994205, 3.102098, 0.011352, 1.819824

149504325.902618, 0.061697, 0.196699, 0.019242, -0.015630, 0.077582, -0.982557, -6.476064, 25.390419, -52.001652, 3.102129, 0.008820, 1.819873

149504325.903969, -0.025656, -0.043982, -0.030543, -0.000000, 0.062065, -0.997673, -6.341317, 25.342409, -52.007607, 3.101342, 0.009235, 1.820868

149504325.905321, -0.014966, -0.120951, -0.061087, -0.031260, 0.062065, -1.027906, -6.233520, 25.304003, -52.012371, 3.100759, 0.011300, 1.820722

149504325.906672, -0.023518, -0.128893, -0.088881, -0.031260, 0.062065, -1.027906, -6.208890, 25.293684, -52.016182, 3.100079, 0.013443, 1.820922

149504325.908024, 0.073304, 0.368963, -0.231518, 0.014889, 0.062065, -1.012789, -6.189187, 25.285429, -52.019230, 3.100704, 0.008112, 1.825303

149504325.909374, 0.159741, 0.894307, -0.302989, 0.014889, 0.077582, -0.967441, -6.173424, 25.278826, -52.021671, 3.102052, -0.004041, 1.831106

149504325.910725, 0.213803, 1.257466, -0.305433, 0.014889, 0.077582, -0.967441, -5.914377, 25.212318, -52.140244, 3.104013, -0.020772, 1.836802

149504325.912120, 0.060781, 1.397049, -0.178984, 0.044666, 0.093098, -0.937208, -5.707140, 25.159113, -52.235100, 3.103529, -0.040371, 1.842529

149504325.913490, -0.025351, 1.026559, -0.062919, 0.044666, 0.093098, -0.937208, -5.130623, 25.116549, -52.287663, 3.101899, -0.054314, 1.845887

149504325.914845, -0.206472, 0.465479, 0.098349, -0.000000, 0.124131, -0.997673, -4.669410, 25.082497, -52.329712, 3.097549, -0.059438, 1.844343

149504325.916200, -0.519235, -0.423940, 0.273973, 0.044666, 0.077582, -1.058138, -4.300439, 25.055256, -52.363350, 3.090290, -0.053648, 1.840990

149504325.917553, -0.540921, -0.542448, 0.222355, 0.044666, 0.077582, -1.058138, -4.046335, 25.196728, -52.273643, 3.082847, -0.046400, 1.838005

149504325.918904, -0.455400, -0.365297, 0.169821, 0.074444, 0.108614, -0.997673, -3.843052, 25.309906, -52.201878, 3.075974, -0.042314, 1.837771

149504325.920257, -0.387899, -0.106596, 0.200669, 0.119110, 0.062065, -1.103487, -3.618817, 25.543304, -52.097816, 3.071215, -0.042366, 1.837516

149504325.921608, -0.585514, 1.132239, -0.006414, 0.119110, 0.062065, -1.103487, -3.439428, 25.730024, -52.014568, 3.063742, -0.058582, 1.841023

149504325.922964, -0.407142, 2.001805, 0.020159, 0.074444, 0.124131, -1.043022, -3.295917, 25.879400, -51.947968, 3.057375, -0.085372, 1.844514

149504325.924322, -0.204640, 2.411085, 0.036652, 0.029778, 0.046549, -0.725580, -2.565018, 26.162167, -51.778069, 3.054879, -0.116520, 1.845396

149504325.925673, 0.067806, 0.660651, 0.398284, 0.029778, 0.046549, -0.725580, -1.980299, 26.388378, -51.642151, 3.056856, -0.124197, 1.838913

149504325.927025, -0.425773, -0.444404, 0.559858, 0.163776, 0.093098, -1.043022, -1.327696, 26.630573, -51.556740, 3.052149, -0.119593, 1.833842

149504325.928376, -0.541837, -0.790460, 0.548557, 0.163776, 0.093098, -1.043022, -0.805614, 26.824329, -51.488411, 3.045987, -0.110544, 1.828113

149504325.929727, -0.230907, -0.352164, 0.395841, 0.178665, 0.062065, -1.012789, -0.387949, 26.979334, -51.433746, 3.044319, -0.107637, 1.824934

149504325.931079, 0.121257, -0.125838, 0.456927, 0.163776, 0.077582, -0.982557, -0.074353, 27.164562, -51.296719, 3.047026, -0.107680, 1.820933

149504325.932433, 0.159741, -0.076053, 0.505796, 0.163776, 0.077582, -0.982557, 0.176524, 27.312744, -51.187096, 3.050252, -0.108424, 1.816172

149504325.933785, 0.377820, 0.044899, 0.562301, 0.148888, 0.077582, -0.997673, 0.479908, 27.329250, -51.146046, 3.056367, -0.110455, 1.809959

149504325.935138, 0.392786, 0.159741, 0.494190, 0.074444, 0.046549, -0.982557, 0.722614, 27.342455, -51.113209, 3.063086, -0.112438, 1.801344

149504325.936489, 0.433409, 0.135612, 0.449597, 0.074444, 0.046549, -0.982557, 0.916780, 27.353018, -51.086937, 3.070148, -0.113963, 1.793306

149504325.937842, 0.352469, -0.288328, 0.407447, 0.029778, 0.077582, -0.967441, 1.092648, 27.259428, -51.182541, 3.075440, -0.108832, 1.783630

149504325.939197, 0.335670, -0.537867, 0.507934, 0.029778, 0.077582, -0.967441, 1.233343, 27.184557, -51.259026, 3.080512, -0.100538, 1.772501

149504325.940548, 0.368657, -0.581544, 0.578795, 0.148888, 0.015516, -1.043022, 1.284290, 26.961393, -51.390182, 3.087116, -0.094110, 1.764887

149504325.941899, 0.410196, -0.414167, 0.497244, 0.089333, 0.046549, -1.012789, 1.325048, 26.782862, -51.495110, 3.093348, -0.088849, 1.756812

149504325.943254, 0.518014, -0.389732, 0.353691, 0.089333, 0.046549, -1.012789, 1.357654, 26.640038, -51.579048, 3.100698, -0.083866, 1.750838

149504325.944608, 0.560163, -0.459371, 0.248928, 0.119110, 0.015516, -0.997673, 1.383738, 26.342104, -51.622879, 3.108928, -0.078592, 1.747416

149504325.945963, 0.508851, -0.527788, 0.109039, 0.104221, 0.000000, -0.967441, 1.404606, 26.103758, -51.657944, 3.116454, -0.072209, 1.745380

149504325.947316, 0.431882, -0.422719, -0.167683, 0.104221, 0.000000, -0.967441, 1.133792, 25.790632, -51.849262, 3.122535, -0.067259, 1.747399

149504325.948667, 0.495106, -0.406836, -0.182649, 0.044666, -0.015483, -0.967441, 0.917140, 25.540131, -52.002316, 3.129658, -0.061448, 1.747307

149504325.950032, 0.911106, -0.393092, 0.032987, 0.104221, -0.154832, -0.982557, 0.743818, 25.339729, -52.124760, -3.137970, -0.057122, 1.745911

149504325.951393, 2.885727, -0.014966, 0.289245, 0.104221, -0.154832, -0.982557, 0.605161, 24.648796, -52.385983, -3.096257, -0.057818, 1.741294

149504325.952750, 3.749185, 0.333227, 0.361938, 0.089333, 0.031033, -1.058138, 0.494236, 24.096050, -52.594959, -3.047576, -0.062436, 1.736233

149504325.954106, 3.310584, 0.548252, 0.263283, 0.089333, 0.031033, -1.058138, 0.631395, 22.531404, -53.228622, -3.005766, -0.069736, 1.732247

149504325.955464, 1.929112, 0.346361, 0.003360, 0.074444, -0.046450, -1.043022, 0.741122, 21.279688, -53.735550, -2.981871, -0.074276, 1.730826

149504325.956819, 1.721724, 0.252593, -0.047647, 0.104221, -0.123865, -0.967441, 0.828904, 20.278315, -54.141094, -2.959657, -0.078337, 1.731043

149504325.958174, 1.670106, 0.164323, -0.060476, 0.104221, -0.123865, -0.967441, 0.960739, 18.742521, -54.605473, -2.938597, -0.081206, 1.731714

149504325.959528, 1.308168, 0.118813, -0.133474, 0.074444, -0.123865, -0.967441, 1.066207, 17.513887, -54.976974, -2.922859, -0.082981, 1.732292

149504325.960880, 1.468825, 0.051924, -0.007330, 0.104221, -0.201281, -0.997673, 1.212190, 16.020777, -55.390797, -2.903792, -0.084049, 1.731974

149504325.962230, 1.836566, -0.014966, 0.081856, 0.104221, -0.201281, -0.997673, 1.328977, 14.826287, -55.721855, -2.880188, -0.083945, 1.730798

149504325.963579, 2.036014, -0.303600, 0.131641, 0.119110, -0.263214, -0.952324, 1.422406, 13.870696, -55.986702, -2.853059, -0.080331, 1.730232

149504325.964929, 2.519514, -0.217773, 0.088881, 0.119110, -0.170315, -0.937208, 1.497149, 12.065407, -56.315197, -2.821832, -0.078206, 1.731302

149504325.966283, 1.919339, -0.141721, -0.025656, 0.074444, -0.170315, -0.937208, 1.556944, 10.621175, -56.577995, -2.799246, -0.076481, 1.731580

149504325.967633, 0.989907, -0.104458, -0.165239, 0.074444, -0.309663, -0.952324, 1.522634, 9.159667, -56.858204, -2.786896, -0.075853, 1.732631

149504325.968983, 0.378431, -0.115148, -0.196699, 0.074444, -0.309663, -0.952324, 1.495187, 7.990461, -57.082371, -2.782920, -0.075270, 1.734229

149504325.970333, 0.315512, -0.171348, -0.204640, 0.044666, -0.325147, -0.967441, 1.473228, 7.055096, -57.261707, -2.779644, -0.073425, 1.734956

149504325.971685, 0.227242, -0.295964, -0.138056, 0.059555, -0.371596, -0.937208, 1.332444, 6.163947, -57.358528, -2.776536, -0.070135, 1.736030

149504325.973040, 0.387899, -0.363159, 0.009163, 0.059555, -0.371596, -0.937208, 1.219816, 5.451027, -57.435982, -2.771237, -0.065373, 1.735728

149504325.974395, 0.690278, -0.284663, 0.034819, 0.014889, -0.402562, -0.982557, 1.027032, 4.737835, -57.567917, -2.761685, -0.060680, 1.733144

149504325.975746, 0.956615, -0.270919, 0.078191, 0.104221, -0.418046, -0.876743, 0.872805, 4.167281, -57.673466, -2.747744, -0.057894, 1.733436

149504325.977098, 1.081231, -0.086437, 0.057421, 0.104221, -0.418046, -0.876743, 0.749423, 3.710837, -57.757904, -2.732379, -0.057521, 1.733212

149504325.978450, 1.189965, 0.101404, -0.016493, 0.104221, -0.387079, -0.937208, 0.650718, 2.753846, -57.848782, -2.716939, -0.059744, 1.733384

149504325.979800, 1.193325, 0.241292, -0.096211, 0.104221, -0.387079, -0.937208, 0.571754, 1.988253, -57.921482, -2.701776, -0.064049, 1.733907

149504325.981168, 1.091311, 0.328340, -0.207083, 0.089333, -0.449012, -0.891859, 0.611264, 1.110472, -57.932995, -2.686657, -0.069724, 1.734155

149504325.982520, 1.095587, 0.218995, -0.143859, 0.074444, -0.495461, -0.876743, 0.642872, 0.408248, -57.942204, -2.670982, -0.073278, 1.733415

149504325.983875, 1.193631, 0.118508, 0.024740, 0.074444, -0.495461, -0.876743, 0.668159, -0.153532, -57.949574, -2.654188, -0.074547, 1.731291

149504325.985228, 1.630094, 0.260229, 0.388816, 0.074444, -0.510945, -0.891859, 0.688388, -0.602955, -57.955467, -2.631450, -0.075072, 1.723976

149504325.986580, 2.061670, 0.166461, 0.448681, 0.074444, -0.479978, -0.906976, 0.704571, -0.962494, -57.960182, -2.604138, -0.073936, 1.716949

149504325.987931, 1.790751, -0.055589, 0.445321, 0.074444, -0.479978, -0.906976, 0.779127, -2.535840, -57.847336, -2.581113, -0.070184, 1.711784

149504325.989283, 1.521360, -0.136834, 0.337198, 0.119110, -0.557394, -0.816278, 0.838772, -3.794516, -57.757057, -2.559979, -0.067233, 1.709637

149504325.990634, 1.461190, 0.039401, 0.019242, 0.059555, -0.603844, -0.770929, 0.886488, -4.801457, -57.684837, -2.538929, -0.067440, 1.707641

149504325.991987, 1.313055, 0.050702, -0.012828, 0.059555, -0.603844, -0.770929, 0.924660, -5.607010, -57.627060, -2.520268, -0.067985, 1.705964

149504325.993337, 1.214400, -0.008247, -0.010079, 0.014889, -0.572877, -0.861627, 0.955198, -6.251452, -57.580837, -2.504822, -0.066834, 1.703294

149504325.994689, 0.715323, -0.298102, -0.025962, 0.014889, -0.572877, -0.861627, 1.020701, -7.705782, -57.380592, -2.496449, -0.062744, 1.703100

149504325.996043, 0.828333, -0.362243, 0.052534, 0.014889, -0.634810, -0.786045, 1.073104, -8.869246, -57.220394, -2.484855, -0.057572, 1.702571

149504325.997395, 1.133461, -0.337503, 0.114232, 0.044666, -0.619327, -0.816278, 1.115026, -10.269404, -57.092236, -2.470068, -0.052818, 1.702368

149504325.998747, 1.464549, -0.208305, -0.029932, 0.044666, -0.619327, -0.816278, 0.984273, -11.389531, -56.803120, -2.451216, -0.050705, 1.702807

149504326.000098, 1.311833, -0.126144, -0.087354, 0.074444, -0.665776, -0.755813, 0.879670, -12.285632, -56.571827, -2.433311, -0.050637, 1.704150

149504326.001449, 1.209513, -0.066890, -0.138056, 0.044666, -0.665776, -0.770929, 0.795988, -13.471901, -56.270172, -2.417313, -0.051024, 1.704541

149504326.002801, 0.879951, -0.009468, -0.314901, 0.044666, -0.665776, -0.770929, 0.729042, -14.420916, -56.028847, -2.406058, -0.053550, 1.706261

149504326.004154, 0.784046, -0.036957, -0.280998, 0.029778, -0.712226, -0.786045, 0.675486, -15.465842, -55.835789, -2.395782, -0.055184, 1.707237

149504326.005508, 0.704022, -0.115454, -0.174707, 0.029778, -0.712226, -0.786045, 0.673713, -16.301785, -55.518074, -2.386757, -0.055083, 1.707881

149504326.006860, 0.614530, -0.182343, 0.113926, 0.059555, -0.727709, -0.755813, 0.672295, -16.970537, -55.263901, -2.378418, -0.052326, 1.707429

149504326.008211, 0.659124, -0.327424, 0.138972, 0.074444, -0.851574, -0.680232, 0.609552, -17.668804, -55.013916, -2.367113, -0.048311, 1.708081

149504326.009562, 1.164615, -0.170126, 0.098655, 0.074444, -0.851574, -0.680232, 0.559357, -18.227419, -54.813927, -2.349298, -0.046244, 1.707762

149504326.010912, 1.759903, 0.072082, 0.019548, 0.059555, -0.712226, -0.725580, 0.519201, -19.347780, -54.653934, -2.326301, -0.046952, 1.706231

149504326.012266, 1.445307, 0.208000, -0.295964, 0.059555, -0.758675, -0.649999, 0.466540, -20.244068, -54.292702, -2.306220, -0.051973, 1.705976

149504326.013619, 1.136820, 0.165544, -0.353996, 0.059555, -0.758675, -0.649999, 0.424412, -20.961100, -54.003716, -2.290687, -0.057094, 1.706663

149504326.014971, 0.995099, 0.124006, -0.376598, 0.059555, -0.789642, -0.649999, 0.493390, -21.861256, -53.585934, -2.276993, -0.061974, 1.707763

149504326.016324, 0.893085, 0.037874, -0.362854, 0.014889, -0.867058, -0.604650, 0.548573, -22.581379, -53.251709, -2.263313, -0.065133, 1.707791

149504326.017675, 0.949590, -0.033598, -0.323148, 0.014889, -0.867058, -0.604650, 0.592720, -23.545233, -52.727768, -2.249202, -0.067237, 1.708142

149504326.019029, 1.338100, -0.102931, 0.062308, 0.074444, -0.851574, -0.619767, 0.689646, -24.316317, -52.308613, -2.230506, -0.065819, 1.707999

149504326.020380, 1.748602, -0.162185, 0.446848, 0.074444, -0.851574, -0.619767, 0.767187, -24.933184, -51.973289, -2.206614, -0.059899, 1.705442

149504326.021731, 1.841148, -0.059865, 0.339336, 0.104221, -0.758675, -0.559302, 0.747074, -25.998106, -51.425144, -2.182094, -0.056808, 1.704492

149504326.023094, 1.462411, -0.021991, 0.259007, 0.089333, -0.820608, -0.544185, 0.730984, -26.850044, -50.986626, -2.161942, -0.054461, 1.702861

149504326.024447, 1.017702, -0.012217, 0.059559, 0.089333, -0.820608, -0.544185, 0.718112, -27.939758, -50.425896, -2.148314, -0.054434, 1.702834

149504326.025798, 0.918436, -0.050702, -0.106291, 0.074444, -0.851574, -0.544185, 0.728350, -28.811529, -49.977310, -2.136056, -0.055636, 1.703792

149504326.027159, 0.913854, -0.065668, -0.161879, 0.074444, -0.867058, -0.529069, 0.736541, -29.508945, -49.618443, -2.123630, -0.057353, 1.705235

149504326.028510, 1.001208, -0.104763, 0.084910, 0.074444, -0.867058, -0.529069, 0.681485, -30.291368, -49.074783, -2.110312, -0.055987, 1.705495

149504326.029861, 1.141096, -0.223577, 0.199753, 0.074444, -0.867058, -0.468604, 0.637440, -30.917307, -48.639858, -2.094400, -0.052602, 1.706256

149504326.031219, 1.302670, -0.194255, 0.231823, 0.044666, -0.851574, -0.483720, 0.520059, -31.764996, -48.012032, -2.076960, -0.048497, 1.705673

149504326.032571, 1.390635, -0.197004, 0.255953, 0.044666, -0.851574, -0.483720, 0.426153, -32.443146, -47.509769, -2.058764, -0.044194, 1.705178

149504326.033926, 0.926988, -0.269392, 0.336587, 0.059555, -0.913507, -0.468604, 0.351029, -32.985668, -47.107960, -2.046231, -0.038852, 1.705516

149504326.035282, 0.778548, -0.294132, 0.228464, 0.059555, -0.913507, -0.468604, 0.126639, -33.725807, -46.529949, -2.035942, -0.034756, 1.707106

149504326.036633, 0.622166, -0.301767, 0.093157, 0.044666, -0.913507, -0.468604, -0.052873, -34.317917, -46.067539, -2.027984, -0.032039, 1.709218

149504326.037986, 0.388816, -0.370795, -0.086437, 0.014889, -0.928990, -0.498837, -0.258092, -34.914055, -45.627640, -2.023681, -0.030511, 1.712218

149504326.039338, 0.365908, -0.445015, -0.134696, 0.014889, -0.928990, -0.498837, -0.422267, -35.390965, -45.275719, -2.019796, -0.029180, 1.716492

149504326.040690, 0.438907, -0.495412, -0.135918, 0.014889, -0.913507, -0.453488, -0.553607, -35.772495, -44.994183, -2.014396, -0.027665, 1.721355

149504326.042041, 0.772439, -0.514043, -0.238543, 0.014889, -0.820608, -0.453488, -0.740824, -36.261391, -44.629009, -2.005589, -0.027340, 1.727332

149504326.043393, 0.795041, -0.464868, -0.290466, 0.014889, -0.820608, -0.453488, -0.890598, -36.652508, -44.336872, -1.996648, -0.027980, 1.733064

149504326.044746, 0.735787, -0.379958, -0.244041, 0.044666, -0.898024, -0.423255, -1.051490, -37.128666, -43.869923, -1.987355, -0.029208, 1.738570

149504326.046099, 0.630413, -0.244346, -0.275195, 0.044666, -0.898024, -0.423255, -1.180203, -37.509594, -43.496361, -1.979612, -0.031560, 1.742649

149504326.047450, 0.675006, -0.218079, -0.262672, -0.015630, -0.928990, -0.438372, -1.283174, -37.814335, -43.197514, -1.971370, -0.032627, 1.743677

149504326.048801, 0.589180, -0.255036, -0.344833, 0.014889, -0.882541, -0.377906, -1.324478, -38.241802, -42.841816, -1.963800, -0.035180, 1.746848

149504326.050154, 0.561385, -0.322537, -0.239765, 0.014889, -0.882541, -0.377906, -1.357521, -38.583775, -42.557255, -1.956756, -0.036087, 1.750302

149504326.051506, 0.713491, -0.291688, -0.133779, 0.074444, -0.928990, -0.362790, -1.486637, -39.020618, -42.119690, -1.947175, -0.037062, 1.755156

149504326.052856, 0.684475, -0.322537, -0.028711, 0.074444, -0.944474, -0.362790, -1.589930, -39.370094, -41.769638, -1.938065, -0.036593, 1.759847

149504326.054212, 0.648128, -0.320399, 0.045815, 0.074444, -0.944474, -0.362790, -1.672565, -39.649673, -41.489597, -1.929565, -0.035251, 1.764224

149504326.055565, 0.706466, -0.115148, 0.093157, 0.029778, -0.913507, -0.332558, -1.800281, -40.077419, -41.078976, -1.920035, -0.033470, 1.764062

149504326.056919, 0.906524, -0.001833, 0.105069, 0.089333, -0.944474, -0.287209, -1.902455, -40.419617, -40.750477, -1.906896, -0.033269, 1.764424

149504326.058272, 1.075428, 0.083078, 0.110261, 0.089333, -0.944474, -0.287209, -1.922584, -41.060722, -40.161140, -1.891739, -0.033367, 1.763870

149504326.059624, 1.452027, 0.210138, 0.106291, 0.059555, -0.975440, -0.302325, -1.938688, -41.573605, -39.689674, -1.871984, -0.033376, 1.760730

149504326.060975, 1.625512, 0.175624, 0.093768, 0.059555, -0.975440, -0.302325, -1.951571, -41.983913, -39.312500, -1.850365, -0.033351, 1.758241

149504326.062327, 1.785559, 0.083994, 0.049175, 0.074444, -0.990923, -0.256976, -2.002950, -42.597874, -38.404335, -1.826149, -0.033801, 1.757478

149504326.063677, 1.868331, -0.244652, 0.098655, 0.029778, -0.898024, -0.272093, -2.044053, -43.089043, -37.677803, -1.802304, -0.031694, 1.759686

149504326.065029, 1.754405, -0.362854, 0.226936, 0.029778, -0.898024, -0.272093, -2.138545, -43.869732, -36.583450, -1.780427, -0.027691, 1.763327

149504326.066381, 1.860390, -0.438907, 0.410501, 0.044666, -0.990923, -0.226744, -2.214138, -44.494282, -35.707970, -1.756203, -0.021536, 1.767657

149504326.067731, 2.402228, -0.321621, 0.471283, 0.044666, -0.990923, -0.151163, -2.274613, -44.993923, -35.007584, -1.723819, -0.015136, 1.770063

149504326.069080, 2.437658, -0.102625, 0.300546, 0.044666, -0.990923, -0.151163, -2.548892, -45.863026, -33.607613, -1.691568, -0.011596, 1.770473

149504326.070430, 2.827084, 0.478613, 0.105985, 0.014889, -0.867058, -0.272093, -2.768316, -46.558308, -32.487637, -1.657782, -0.010978, 1.764250

149504326.071781, 2.838996, 0.326507, -0.143859, 0.014889, -0.867058, -0.272093, -2.800100, -47.645145, -30.612047, -1.624476, -0.013413, 1.761031

149504326.073143, 2.545170, 0.064752, -0.175624, -0.000000, -1.021889, -0.030233, -2.825528, -48.514614, -29.111576, -1.589993, -0.015509, 1.758485

149504326.074497, 2.615114, -0.058032, -0.197309, 0.029778, -0.959957, 0.015588, -2.845870, -49.210190, -27.911200, -1.554603, -0.018436, 1.758517

149504326.075850, 2.448042, -0.215025, -0.239459, 0.029778, -0.959957, 0.015588, -2.903216, -50.052364, -26.064587, -1.522200, -0.021945, 1.760780

149504326.077206, 1.929723, -0.552222, -0.164323, 0.014889, -0.882541, 0.015588, -2.949093, -50.726105, -24.587297, -1.497354, -0.024446, 1.767132

149504326.078557, 1.614822, -0.644463, -0.057116, -0.000000, -1.037372, -0.090698, -3.067940, -51.448769, -22.752394, -1.479388, -0.025362, 1.775038

149504326.079908, 1.429119, -0.913244, 0.168293, -0.000000, -1.037372, -0.090698, -3.163018, -52.026901, -21.284472, -1.464345, -0.023802, 1.787004

149504326.081259, 0.908967, -0.890336, -0.083383, 0.074444, -0.913507, 0.218231, -3.239080, -52.489407, -20.110134, -1.450044, -0.027343, 1.798614

149504326.082611, 0.758695, -0.591012, -0.203113, 0.044666, -0.990923, 0.031176, -3.258857, -52.879818, -18.867451, -1.441994, -0.031378, 1.806810

149504326.083960, 0.899805, -0.435852, -0.271835, 0.044666, -0.990923, 0.031176, -3.274679, -53.192146, -17.873304, -1.432210, -0.036031, 1.812932

149504326.085314, 1.256855, -0.755335, -0.301462, 0.044666, -0.959957, 0.093528, -3.246263, -53.686909, -16.541536, -1.416731, -0.041659, 1.822511

149504326.086667, 1.243416, -1.007317, -0.300240, 0.044666, -0.959957, 0.093528, -3.223531, -54.082718, -15.476122, -1.401946, -0.047838, 1.835361

149504326.088019, 1.103834, -1.151786, -0.309403, 0.059555, -0.959957, 0.311759, -3.205345, -54.399364, -14.623791, -1.385154, -0.054880, 1.848253

149504326.089370, 0.778548, -0.440128, -0.256563, 0.074444, -0.882541, 0.327347, -3.088115, -54.632275, -13.545418, -1.371763, -0.059913, 1.852018

149504326.090722, 0.551306, -0.073304, -0.258091, 0.074444, -0.882541, 0.327347, -2.994330, -54.818604, -12.682719, -1.361366, -0.063937, 1.850939

149504326.092074, 0.345444, -0.035736, -0.293521, 0.044666, -0.928990, 0.233819, -2.796085, -55.028893, -11.829292, -1.356008, -0.067516, 1.849047

149504326.093423, 0.308792, -0.053145, -0.237932, 0.074444, -0.944474, 0.233819, -2.637488, -55.197121, -11.146551, -1.351367, -0.070920, 1.848775

149504326.094775, 0.552222, 0.052840, -0.176540, 0.074444, -0.944474, 0.233819, -2.510611, -55.331703, -10.600358, -1.343499, -0.073157, 1.847317

149504326.096128, 0.538172, 0.048258, -0.177456, 0.089333, -0.928990, 0.249407, -2.368037, -55.459778, -10.046783, -1.335577, -0.075687, 1.846337

149504326.097480, 0.623388, -0.020159, -0.175624, 0.089333, -0.928990, 0.249407, -2.253977, -55.562237, -9.603924, -1.326754, -0.078346, 1.846265

149504326.098830, 0.790765, 0.131947, -0.175929, 0.074444, -0.928990, 0.249407, -2.080584, -55.766655, -8.806480, -1.315742, -0.080151, 1.843636

149504326.100194, 1.002124, 0.129503, -0.165544, 0.074444, -0.867058, 0.218231, -1.941870, -55.930187, -8.168526, -1.302335, -0.081901, 1.841584

149504326.101554, 1.062600, -0.074831, -0.183870, 0.074444, -0.867058, 0.218231, -1.830898, -56.061016, -7.658162, -1.288633, -0.084559, 1.842159

149504326.102908, 1.201267, -0.149967, -0.247706, 0.119110, -0.898024, 0.420875, -1.618903, -56.104454, -6.853364, -1.269677, -0.089019, 1.842529

149504326.104267, 1.152397, 0.077274, -0.231823, 0.119110, -0.944474, 0.327347, -1.449306, -56.139206, -6.209525, -1.253497, -0.092234, 1.841150

149504326.105621, 1.130101, 0.270919, -0.198837, 0.119110, -0.944474, 0.327347, -1.252020, -56.167007, -5.274622, -1.237763, -0.094114, 1.837540

149504326.106982, 1.167974, 0.216246, -0.138056, 0.074444, -0.882541, 0.233819, -1.094191, -56.189247, -4.526700, -1.223361, -0.094644, 1.834484

149504326.108339, 1.335046, 0.033903, -0.079107, 0.089333, -0.959957, 0.436463, -0.967928, -56.207039, -3.928363, -1.203937, -0.095314, 1.832199

149504326.109691, 1.496009, -0.078802, 0.002749, 0.089333, -0.959957, 0.436463, -0.866918, -56.262089, -2.843269, -1.183005, -0.095475, 1.831838

149504326.111043, 1.499369, 0.118813, 0.027184, 0.104221, -0.882541, 0.498814, -0.786109, -56.306129, -1.975194, -1.160485, -0.094742, 1.829134

149504326.112395, 1.304197, 0.224798, 0.021991, 0.104221, -0.882541, 0.498814, -0.700926, -56.300545, -0.744283, -1.140881, -0.093467, 1.825312

149504326.113747, 1.292285, 0.397673, 0.041844, 0.119110, -0.805125, 0.405287, -0.632780, -56.296078, 0.240446, -1.122600, -0.091479, 1.821283

149504326.115106, 1.688737, 0.248317, -0.097128, 0.029778, -0.882541, 0.374111, -0.578263, -56.292503, 1.028230, -1.100658, -0.089866, 1.814844

149504326.116458, 1.953853, -0.083078, -0.051313, 0.029778, -0.882541, 0.374111, -0.575722, -56.248825, 2.311528, -1.076135, -0.089681, 1.812898

149504326.117809, 1.949576, -0.029322, -0.026267, 0.074444, -0.882541, 0.607930, -0.573689, -56.213882, 3.338166, -1.048147, -0.089855, 1.810878

149504326.119165, 1.666135, 0.177151, 0.003971, 0.074444, -0.836091, 0.592342, -0.489917, -56.063480, 4.719253, -1.023935, -0.088333, 1.806841

149504326.120516, 1.073290, 0.401338, 0.049786, 0.074444, -0.836091, 0.592342, -0.422900, -55.943161, 5.824122, -1.007964, -0.084708, 1.800788

149504326.121868, 1.254717, 0.570548, 0.094379, 0.089333, -0.712226, 0.342935, -0.369286, -55.846905, 6.708017, -0.993109, -0.080264, 1.797151

149504326.123221, 1.562288, 0.493274, 0.059254, 0.089333, -0.712226, 0.483226, -0.449613, -55.688267, 7.951585, -0.971641, -0.076445, 1.792118

149504326.124573, 1.712866, -0.261450, -0.182343, 0.089333, -0.712226, 0.483226, -0.513875, -55.561356, 8.946439, -0.949113, -0.080955, 1.793906

149504326.125926, 1.778229, -0.242514, -0.216857, 0.104221, -0.758675, 0.670282, -0.462602, -55.235336, 10.442042, -0.923586, -0.085636, 1.794068

149504326.127279, 1.817630, -0.063530, -0.233351, 0.104221, -0.758675, 0.670282, -0.421584, -54.974522, 11.638525, -0.897854, -0.088951, 1.792248

149504326.128631, 1.754405, -0.109345, -0.162185, 0.104221, -0.805125, 0.670282, -0.388770, -54.765869, 12.595711, -0.874161, -0.091735, 1.791740

149504326.129985, 1.762346, -0.149051, -0.091935, 0.104221, -0.805125, 0.748222, -0.259837, -54.354050, 14.061178, -0.849792, -0.094016, 1.791678

149504326.131337, 1.673465, -0.092852, -0.063225, 0.104221, -0.805125, 0.748222, -0.156690, -54.024593, 15.233553, -0.827101, -0.095474, 1.791374

149504326.132687, 1.727527, -0.123089, -0.040012, 0.104221, -0.758675, 0.701458, -0.033100, -53.516132, 16.801199, -0.804272, -0.097074, 1.791994

149504326.134041, 1.704619, -0.275500, -0.057116, 0.089333, -0.774159, 0.888513, 0.065772, -53.109364, 18.055317, -0.780092, -0.099812, 1.792176

149504326.135395, 1.582752, -0.238543, -0.069028, 0.089333, -0.774159, 0.888513, 0.144870, -52.783947, 19.058611, -0.757958, -0.102278, 1.791885

149504326.136746, 1.389108, 0.152105, -0.063225, 0.104221, -0.650293, 0.701458, 0.228684, -52.339939, 20.327726, -0.739150, -0.101496, 1.789672

149504326.138097, 0.954172, 0.096211, -0.036652, 0.104221, -0.619327, 0.701458, 0.295736, -51.984734, 21.343018, -0.726079, -0.101062, 1.788269

149504326.139450, 0.797485, -0.078191, -0.044593, 0.089333, -0.619327, 0.701458, 0.390449, -51.435265, 22.411816, -0.715469, -0.102111, 1.787864

149504326.140801, 0.816727, -0.235489, -0.047953, 0.119110, -0.572877, 0.732634, 0.466221, -50.995689, 23.266853, -0.703779, -0.105393, 1.789549

149504326.142153, 1.111775, -0.152716, 0.042150, 0.119110, -0.572877, 0.732634, 0.526838, -50.644028, 23.950884, -0.688431, -0.107025, 1.791477

149504326.143505, 1.324967, -0.208305, 0.128893, 0.074444, -0.572877, 0.701458, 0.616404, -50.199432, 24.941263, -0.671124, -0.107588, 1.793211

149504326.144857, 1.489595, -0.234572, 0.218384, 0.119110, -0.495461, 0.654694, 0.688057, -49.843758, 25.733566, -0.651354, -0.108992, 1.798289

149504326.146213, 1.709812, -0.307876, 0.351553, 0.119110, -0.495461, 0.654694, 0.663234, -49.069424, 26.950510, -0.629224, -0.110194, 1.805643

149504326.147566, 1.799914, -0.449291, 0.379653, 0.119110, -0.495461, 0.717046, 0.643375, -48.449955, 27.924065, -0.605724, -0.112647, 1.813602

149504326.148916, 1.849700, -0.541837, 0.358883, 0.148888, -0.387079, 0.857337, 0.627489, -47.954380, 28.702908, -0.578555, -0.116892, 1.820867

149504326.150269, 1.320996, -0.492968, 0.136528, 0.148888, -0.387079, 0.857337, 0.676388, -47.272205, 29.792461, -0.558576, -0.122278, 1.825234

149504326.151620, 1.189355, -0.277638, 0.020464, 0.148888, -0.449012, 0.717046, 0.715508, -46.726467, 30.664104, -0.543081, -0.126318, 1.828985

149504326.152970, 1.155146, -0.263283, -0.075747, 0.148888, -0.449012, 0.717046, 0.808413, -46.085793, 31.734602, -0.528197, -0.130811, 1.831720

149504326.154323, 0.510683, 1.332603, -0.405615, 0.029778, -0.541911, 1.278212, 0.882737, -45.573254, 32.591000, -0.516962, -0.116304, 1.812866

149504326.155675, 0.673173, 1.276403, -0.196393, 0.133999, -0.340630, 0.794985, 0.942196, -45.163223, 33.276119, -0.504652, -0.103593, 1.801947

149504326.157028, 0.516181, 1.005179, -0.283136, 0.133999, -0.340630, 0.794985, 0.743327, -44.651524, 33.964157, -0.494851, -0.094692, 1.792421

149504326.158379, 0.425162, 0.756251, -0.243735, 0.074444, -0.387079, 0.857337, 0.584232, -44.242165, 34.514587, -0.487107, -0.087126, 1.782918

149504326.159730, 0.292604, 0.563218, -0.306349, 0.029778, -0.557394, 0.919689, 0.456956, -43.853455, 35.024906, -0.483708, -0.081141, 1.772651

149504326.161082, 0.314901, 0.356440, -0.310320, 0.029778, -0.557394, 0.919689, 0.355135, -43.542484, 35.433159, -0.480220, -0.077701, 1.763963

149504326.162432, 0.631635, 0.167377, -0.089492, 0.059555, -0.449012, 0.763810, 0.273678, -43.293709, 35.759762, -0.472730, -0.076050, 1.761402

149504326.163781, 0.870788, -0.463952, 0.087048, 0.104221, -0.402562, 0.826161, 0.187976, -42.870201, 36.230961, -0.461118, -0.081741, 1.766234

149504326.165173, 1.101085, -0.771217, 0.124311, 0.104221, -0.402562, 0.826161, 0.119415, -42.531395, 36.607918, -0.446456, -0.091085, 1.773502

149504326.166552, 1.375058, -0.872316, 0.097738, 0.119110, -0.294180, 0.888513, 0.311002, -41.811367, 37.352642, -0.425949, -0.101913, 1.779799

149504326.167906, 1.467298, -0.784351, -0.017715, 0.119110, -0.294180, 0.888513, 0.464272, -41.235348, 37.948421, -0.404778, -0.112029, 1.783795

149504326.169258, 1.440420, -0.791071, -0.054062, 0.133999, -0.387079, 0.841749, 0.586887, -40.774532, 38.425045, -0.386598, -0.122650, 1.789232

149504326.170617, 1.489290, -0.752891, -0.026573, 0.163776, -0.309663, 0.794985, 0.890344, -40.018124, 39.156204, -0.366807, -0.133450, 1.795479

149504326.171971, 0.885449, -0.796263, -0.164017, 0.163776, -0.309663, 0.794985, 1.133108, -39.412994, 39.741131, -0.355325, -0.145247, 1.800014

149504326.173323, 0.429438, -0.907440, -0.215330, 0.133999, -0.356113, 0.919689, 1.676438, -38.786037, 40.395664, -0.350145, -0.157312, 1.801737

149504326.174677, 0.297797, -0.844216, -0.206167, 0.178665, -0.309663, 0.982041, 2.111102, -38.284470, 40.919292, -0.345506, -0.169050, 1.803680

149504326.176032, 0.431271, -0.423330, -0.239765, 0.178665, -0.309663, 0.982041, 2.458833, -37.883217, 41.338192, -0.338785, -0.175462, 1.803062

149504326.177384, 0.148746, -0.261756, -0.307265, 0.193554, -0.232248, 0.919689, 2.983454, -37.460175, 41.766609, -0.334498, -0.180571, 1.800944

149504326.178735, -0.283441, -0.091324, -0.448986, 0.163776, -0.325147, 0.982041, 3.403151, -37.121738, 42.109341, -0.336992, -0.183204, 1.795254

149504326.180088, -0.280082, 0.218995, -0.405920, 0.163776, -0.325147, 0.982041, 3.821054, -36.993847, 42.336880, -0.339236, -0.181733, 1.788537

149504326.181439, -0.013744, 0.383929, -0.287107, 0.223331, -0.278697, 0.966453, 4.155376, -36.891533, 42.518909, -0.337263, -0.178894, 1.784600

149504326.182793, 0.331394, 0.666454, -0.175013, 0.223331, -0.278697, 0.966453, 4.422834, -36.809685, 42.664532, -0.330804, -0.172058, 1.780771

149504326.184151, 0.563218, 1.167058, -0.094990, 0.193554, -0.356113, 0.935277, 4.349292, -36.601349, 42.897652, -0.322907, -0.158170, 1.776247

149504326.185509, 0.972192, 1.255633, 0.063225, 0.163776, -0.356113, 0.904101, 4.290458, -36.434677, 43.084148, -0.310335, -0.142231, 1.772703

149504326.186862, 1.283733, 1.217454, 0.237016, 0.163776, -0.356113, 0.904101, 3.832664, -35.913586, 43.559883, -0.294339, -0.126457, 1.772551

149504326.188214, 1.385748, 1.025032, 0.347582, 0.089333, -0.108382, 0.732634, 3.466428, -35.496712, 43.940468, -0.273107, -0.112145, 1.770796

149504326.189565, 0.550390, 0.333532, 0.207389, 0.044666, -0.232248, 0.982041, 3.173440, -35.163216, 44.244938, -0.265016, -0.105883, 1.767486

149504326.190917, 0.304822, -0.096211, -0.002443, 0.044666, -0.232248, 0.982041, 2.774758, -34.733150, 44.558483, -0.260221, -0.105954, 1.763398

149504326.192270, 0.320399, -0.381180, -0.018021, 0.059555, -0.216764, 0.966453, 2.455813, -34.389099, 44.809319, -0.255211, -0.110046, 1.761112

149504326.193618, 0.674090, -0.671646, 0.121257, 0.059555, -0.216764, 0.966453, 2.385484, -33.909779, 45.173256, -0.245951, -0.117287, 1.761671

149504326.194969, 0.672257, -0.641103, 0.139583, 0.119110, -0.139349, 0.935277, 2.329221, -33.526321, 45.464405, -0.235559, -0.125285, 1.764653

149504326.196324, 0.612698, -0.442266, 0.046426, 0.178665, -0.170315, 0.919689, 2.284210, -33.219555, 45.697327, -0.226572, -0.132088, 1.768601

149504326.197676, 0.632246, -0.213192, 0.056505, 0.178665, -0.170315, 0.919689, 2.371420, -32.790466, 45.953636, -0.217460, -0.135778, 1.771933

149504326.199043, 0.663705, -0.200058, 0.156687, 0.148888, -0.154832, 0.982041, 2.441188, -32.447197, 46.158684, -0.207710, -0.138211, 1.774595

149504326.200396, 0.884227, -0.016799, 0.288939, 0.163776, -0.170315, 0.888513, 2.476466, -31.907274, 46.532639, -0.196110, -0.138472, 1.780182

149504326.201747, 1.315498, 0.364687, 0.566883, 0.163776, -0.170315, 0.888513, 2.504688, -31.475338, 46.831802, -0.179396, -0.133146, 1.788477

149504326.203099, 1.156979, 0.310625, 0.518319, 0.119110, -0.030966, 0.935277, 2.527266, -31.129787, 47.071133, -0.161937, -0.127918, 1.792637

149504326.204450, 0.862847, 0.357356, 0.350637, 0.133999, -0.108382, 0.950865, 2.298892, -30.404367, 47.542484, -0.150039, -0.122760, 1.795868

149504326.205804, 0.647823, 0.618501, 0.166461, 0.133999, -0.108382, 0.950865, 2.116193, -29.824032, 47.919563, -0.140840, -0.114656, 1.796428

149504326.207161, 0.571464, 0.589180, 0.121562, 0.074444, -0.061933, 0.950865, 1.744133, -29.176090, 48.267876, -0.131742, -0.106035, 1.794088

149504326.208512, 0.478918, 0.455705, 0.078191, 0.074444, -0.061933, 0.950865, 1.446486, -28.657738, 48.546524, -0.124065, -0.099431, 1.791802

149504326.209863, 0.406836, 0.299629, 0.064446, 0.029778, -0.123865, 0.982041, 1.208368, -28.243055, 48.769444, -0.118612, -0.093994, 1.788066

149504326.211217, 0.681726, -0.092241, 0.136223, 0.029778, -0.077416, 0.966453, 0.956265, -27.748043, 49.017754, -0.108852, -0.093799, 1.786152

149504326.212567, 0.689361, -0.370795, 0.122784, 0.029778, -0.077416, 0.966453, 0.754582, -27.352034, 49.216400, -0.099234, -0.097287, 1.784660

149504326.213918, 0.563218, -0.620944, 0.125227, 0.104221, -0.046450, 0.982041, 0.654845, -26.790329, 49.515263, -0.090987, -0.105489, 1.786629

149504326.215273, 0.524122, -0.773661, 0.058948, 0.178665, 0.077582, 1.075569, 0.575055, -26.340965, 49.754353, -0.080956, -0.116792, 1.788828

149504326.216625, 0.360716, -0.740674, -0.107818, 0.178665, 0.077582, 1.075569, 0.511223, -25.981474, 49.945621, -0.073033, -0.127600, 1.788731

149504326.217977, 0.122478, -0.822836, -0.265116, 0.163776, 0.000000, 0.982041, 0.911958, -25.693880, 50.098637, -0.069572, -0.139433, 1.787211

149504326.219330, -0.000305, -0.601091, -0.456927, 0.163776, -0.061933, 0.997629, 1.232545, -25.463806, 50.221050, -0.068616, -0.148255, 1.783532

149504326.220680, 0.069639, -0.361327, -0.523512, 0.238220, -0.015483, 0.997629, 1.653306, -25.218521, 50.342304, -0.065489, -0.155120, 1.780515

