Using settings file RTIMULib.ini
IMU Name: L3GD20 + LSM303DLHC
IMU Init Succeeded
Recommended Poll Interval: 10mS

Time, gyroX, gyroY, gyroZ, accelX, accelY, accelZ, magX, magY, magZ, phi, theta, psi

1495052623.799046, 0.017104, -0.013134, 0.000916, 0.059555, 0.015516, 0.982041, 4.959367, 0.417829, 11.005129, 0.015799, -0.060562, -0.056877

1495052623.813663, 0.015272, -0.015577, 0.002749, 0.029778, 0.031033, 0.966453, 8.967934, 0.772501, 19.809233, 0.016330, -0.060184, -0.056034

1495052623.827078, 0.014966, -0.015272, 0.003665, 0.029778, 0.015516, 0.966453, 12.174787, 1.056238, 26.852514, 0.016518, -0.059798, -0.055969

1495052623.840548, 0.019548, -0.011301, 0.005803, 0.029778, 0.015516, 0.966453, 14.699197, 1.242411, 32.487141, 0.016761, -0.059369, -0.055827

1495052623.853964, 0.020464, -0.015272, 0.004276, 0.059555, 0.015516, 0.966453, 16.718725, 1.391350, 36.994843, 0.017013, -0.059613, -0.055764

1495052623.867379, 0.023213, -0.019242, 0.002443, 0.059555, 0.015516, 0.966453, 18.334347, 1.510501, 40.601002, 0.017298, -0.059905, -0.055706

1495052623.880840, 0.019242, -0.014050, 0.003665, 0.044666, 0.000000, 0.966453, 19.626844, 1.667047, 43.532578, 0.017208, -0.059810, -0.056434

1495052623.894271, 0.015882, -0.015272, -0.000000, 0.029778, 0.015516, 0.966453, 20.660843, 1.792283, 45.877838, 0.017394, -0.059431, -0.056405

1495052623.907889, 0.023213, -0.010385, 0.003665, 0.029778, 0.015516, 0.966453, 21.488041, 1.831247, 47.754047, 0.017673, -0.058998, -0.056293

1495052623.921163, 0.019853, -0.013439, 0.003665, 0.044666, 0.015516, 0.950865, 22.149799, 1.862419, 49.255013, 0.017901, -0.058932, -0.056189

1495052623.934494, 0.021075, -0.011912, 0.002443, 0.029778, 0.015516, 0.966453, 22.679207, 1.887356, 50.455788, 0.018137, -0.058525, -0.056055

1495052623.948113, 0.017715, -0.012828, 0.003360, 0.029778, 0.015516, 0.966453, 23.143806, 1.948122, 51.416405, 0.018328, -0.058143, -0.055933

1495052623.961452, 0.017715, -0.012217, 0.003971, 0.044666, 0.031033, 0.966453, 23.515486, 1.996735, 52.184898, 0.018827, -0.058059, -0.055071

1495052623.974716, 0.018937, -0.014050, 0.004276, 0.044666, 0.031033, 0.966453, 23.771755, 2.035626, 52.799694, 0.019331, -0.058000, -0.054238

1495052623.987979, 0.017410, -0.012217, 0.005498, 0.029778, 0.000000, 0.966453, 23.976772, 2.066738, 53.291531, 0.019177, -0.057609, -0.054926

1495052624.001255, 0.018326, -0.015882, 0.000611, 0.059555, 0.031033, 0.982041, 24.140785, 2.091628, 53.685001, 0.019664, -0.057870, -0.054202

1495052624.014521, 0.020769, -0.015577, 0.003971, 0.059555, 0.031033, 0.982041, 24.292532, 2.070723, 54.046425, 0.020171, -0.058122, -0.053416

1495052624.027999, 0.025351, -0.017104, 0.003360, 0.059555, 0.031033, 0.966453, 24.413929, 2.053999, 54.335564, 0.020743, -0.058413, -0.052601

1495052624.041274, 0.019548, -0.015272, 0.003665, 0.089333, 0.015516, 0.935277, 24.490511, 2.040621, 54.543552, 0.020910, -0.059348, -0.052689

1495052624.054634, 0.019853, -0.012828, 0.004887, 0.089333, 0.015516, 0.935277, 24.551777, 2.029917, 54.709942, 0.021078, -0.060234, -0.052742

1495052624.068438, 0.016799, -0.012828, 0.004887, 0.029778, 0.031033, 0.966453, 24.600788, 2.021355, 54.843056, 0.021510, -0.059816, -0.051854

1495052624.081730, 0.020464, -0.013439, 0.002443, 0.029778, 0.031033, 0.966453, 24.619461, 2.096138, 54.972870, 0.021976, -0.059407, -0.051080

1495052624.095040, 0.017410, -0.013134, 0.001833, 0.029778, 0.000000, 0.966453, 24.634399, 2.155964, 55.076721, 0.021774, -0.058998, -0.051908

1495052624.108321, 0.017410, -0.015272, -0.000305, 0.044666, 0.015516, 0.982041, 24.728497, 2.142601, 55.136478, 0.021882, -0.058925, -0.052021

1495052624.121602, 0.017715, -0.011912, 0.001222, 0.044666, 0.015516, 0.982041, 24.803774, 2.131910, 55.184284, 0.021991, -0.058810, -0.052098

1495052624.134868, 0.021075, -0.013439, 0.004887, 0.044666, 0.015516, 0.966453, 24.863997, 2.123357, 55.222527, 0.022143, -0.058734, -0.052104

1495052624.148326, 0.021686, -0.015882, 0.004276, 0.044666, 0.000000, 0.982041, 24.891638, 2.075699, 55.276447, 0.021989, -0.058670, -0.052859

1495052624.161601, 0.018937, -0.010690, 0.005498, 0.044666, 0.000000, 0.982041, 24.913750, 2.037572, 55.319584, 0.021796, -0.058538, -0.053547

1495052624.175001, 0.023518, -0.012523, 0.003665, 0.059555, 0.031033, 0.982041, 24.931440, 2.027478, 55.354092, 0.022299, -0.058740, -0.052690

1495052624.188633, 0.018937, -0.014661, 0.002749, 0.059555, 0.031033, 0.982041, 24.945593, 2.019404, 55.381699, 0.022736, -0.058969, -0.051853

1495052624.201963, 0.023518, -0.012217, 0.003665, 0.059555, 0.015516, 0.966453, 24.956915, 2.012944, 55.403782, 0.022907, -0.059181, -0.051816

1495052624.215297, 0.022602, -0.012828, 0.002138, 0.029778, 0.031033, 0.966453, 24.924900, 2.028185, 55.398125, 0.023373, -0.058778, -0.050972

1495052624.228568, 0.015272, -0.012828, -0.000305, 0.029778, 0.031033, 0.966453, 24.899288, 2.040377, 55.393600, 0.023736, -0.058381, -0.050188

1495052624.241848, 0.015577, -0.013744, 0.001222, 0.044666, 0.031033, 0.966453, 24.878798, 2.090947, 55.413303, 0.024101, -0.058313, -0.049453

1495052624.255119, 0.014661, -0.016493, 0.001222, 0.059555, 0.031033, 0.950865, 24.882942, 2.131403, 55.429066, 0.024463, -0.058610, -0.048755

1495052624.268558, 0.017410, -0.011912, 0.001833, 0.059555, 0.031033, 0.950865, 24.886257, 2.163768, 55.441677, 0.024855, -0.058843, -0.048091

1495052624.281812, 0.021075, -0.010996, 0.003665, 0.059555, 0.000000, 0.982041, 24.847837, 2.169252, 55.451767, 0.024629, -0.059008, -0.049101

1495052624.295221, 0.022907, -0.016188, 0.004276, 0.059555, 0.000000, 0.982041, 24.817101, 2.173639, 55.459839, 0.024433, -0.059241, -0.050092

1495052624.309033, 0.021380, -0.014355, 0.003054, 0.044666, 0.031033, 0.982041, 24.792511, 2.177148, 55.466297, 0.024860, -0.059158, -0.049435

1495052624.322364, 0.021991, -0.014050, 0.002443, 0.029778, 0.000000, 0.950865, 24.772840, 2.179956, 55.471462, 0.024660, -0.058774, -0.050301

1495052624.335729, 0.014966, -0.017104, 0.001833, 0.029778, 0.000000, 0.950865, 24.757103, 2.182202, 55.475594, 0.024374, -0.058439, -0.051161

1495052624.349088, 0.019853, -0.015577, 0.002443, 0.044666, 0.015516, 0.982041, 24.785585, 2.143183, 55.455574, 0.024461, -0.058383, -0.051248

1495052624.362367, 0.019853, -0.013744, 0.003360, 0.044666, 0.031033, 0.966453, 24.808372, 2.111967, 55.439560, 0.024866, -0.058316, -0.050483

1495052624.375663, 0.022297, -0.016493, 0.001833, 0.044666, 0.031033, 0.966453, 24.826601, 2.086995, 55.426750, 0.025295, -0.058286, -0.049731

1495052624.389198, 0.019548, -0.015577, 0.001222, 0.044666, 0.000000, 0.982041, 24.820648, 2.026201, 55.439823, 0.025053, -0.058226, -0.050537

1495052624.402496, 0.018326, -0.017104, 0.002138, 0.044666, 0.000000, 0.982041, 24.815886, 1.977565, 55.450283, 0.024794, -0.058184, -0.051272

1495052624.416064, 0.021686, -0.014966, 0.003665, 0.059555, 0.000000, 0.966453, 24.812077, 2.020290, 55.412003, 0.024583, -0.058441, -0.052090

1495052624.429606, 0.021991, -0.013439, 0.003360, 0.044666, 0.031033, 0.966453, 24.809029, 2.054469, 55.381378, 0.025018, -0.058372, -0.051257

1495052624.442902, 0.015272, -0.012523, 0.002138, 0.044666, 0.031033, 0.966453, 24.806591, 2.081813, 55.356880, 0.025353, -0.058289, -0.050482

1495052624.456461, 0.021380, -0.012217, 0.004276, 0.044666, 0.015516, 0.982041, 24.784103, 2.124096, 55.337280, 0.025443, -0.058196, -0.050541

1495052624.469725, 0.015882, -0.013744, 0.002138, 0.059555, 0.000000, 0.966453, 24.766113, 2.157922, 55.321602, 0.025138, -0.058429, -0.051525

1495052624.483021, 0.016493, -0.011606, 0.003665, 0.059555, 0.000000, 0.966453, 24.751722, 2.144167, 55.309059, 0.024847, -0.058632, -0.052458

1495052624.496292, 0.020159, -0.013134, 0.004276, 0.029778, 0.031033, 0.966453, 24.740210, 2.133163, 55.299023, 0.025241, -0.058245, -0.051669

1495052624.509611, 0.018326, -0.009774, -0.000000, 0.029778, 0.031033, 0.966453, 24.730999, 2.124360, 55.290993, 0.025607, -0.057821, -0.050943

1495052624.522872, 0.022602, -0.015272, 0.004581, 0.029778, 0.015516, 1.013217, 24.764704, 2.096909, 55.284569, 0.025693, -0.057452, -0.050947

1495052624.536236, 0.022602, -0.016493, 0.005803, 0.044666, 0.000000, 0.966453, 24.791666, 2.074948, 55.279430, 0.025476, -0.057433, -0.051717

1495052624.549518, 0.022907, -0.016493, 0.000305, 0.044666, 0.000000, 0.966453, 24.813236, 2.036971, 55.298645, 0.025269, -0.057413, -0.052509

1495052624.563120, 0.016493, -0.012828, 0.003971, 0.059555, 0.015516, 0.982041, 24.830492, 2.006590, 55.314018, 0.025297, -0.057648, -0.052466

1495052624.576529, 0.017715, -0.012217, 0.003665, 0.029778, 0.015516, 0.966453, 24.844297, 1.982285, 55.326317, 0.025341, -0.057274, -0.052315

1495052624.589784, 0.020769, -0.016799, 0.001222, 0.029778, 0.015516, 0.966453, 24.793732, 2.044473, 55.359478, 0.025424, -0.056963, -0.052257

1495052624.603525, 0.020159, -0.012828, -0.000916, 0.029778, 0.031033, 0.982041, 24.753281, 2.094224, 55.386005, 0.025810, -0.056600, -0.051528

1495052624.616833, 0.019548, -0.013134, 0.001833, 0.029778, 0.031033, 0.982041, 24.803064, 2.134025, 55.407230, 0.026170, -0.056244, -0.050810

1495052624.630255, 0.020159, -0.019242, 0.002749, 0.044666, 0.000000, 0.966453, 24.842892, 2.165866, 55.424210, 0.025915, -0.056285, -0.051702

1495052624.643639, 0.018326, -0.016799, 0.001833, 0.044666, 0.015516, 0.966453, 24.874754, 2.191338, 55.437794, 0.025958, -0.056303, -0.051815

1495052624.656979, 0.019242, -0.016799, 0.004887, 0.044666, 0.015516, 0.966453, 24.900244, 2.232124, 55.448658, 0.026008, -0.056321, -0.051920

1495052624.670258, 0.017410, -0.013134, 0.001527, 0.059555, 0.000000, 0.982041, 24.920635, 2.264753, 55.457352, 0.025712, -0.056563, -0.052965

1495052624.683554, 0.022297, -0.016799, 0.002749, 0.059555, 0.031033, 0.935277, 24.895876, 2.250040, 55.394333, 0.026152, -0.056921, -0.052261

1495052624.696903, 0.021380, -0.015577, 0.004581, 0.059555, 0.031033, 0.935277, 24.876068, 2.238269, 55.343918, 0.026571, -0.057256, -0.051538

1495052624.710221, 0.023518, -0.014661, 0.006109, 0.029778, 0.015516, 0.966453, 24.860222, 2.228853, 55.303589, 0.026665, -0.056920, -0.051587

1495052624.723493, 0.025351, -0.015577, 0.006109, 0.029778, 0.015516, 0.966453, 24.847546, 2.241728, 55.341297, 0.026780, -0.056601, -0.051647

1495052624.736913, 0.018937, -0.014050, 0.003054, 0.074444, 0.031033, 0.950865, 24.837404, 2.252028, 55.371464, 0.027150, -0.057215, -0.051013

1495052624.750185, 0.017104, -0.014661, 0.001527, 0.059555, 0.000000, 0.982041, 24.808754, 2.199044, 55.372272, 0.026827, -0.057460, -0.052026

1495052624.763775, 0.016799, -0.015577, 0.002749, 0.059555, 0.000000, 0.982041, 24.785833, 2.156656, 55.372917, 0.026511, -0.057717, -0.052965

1495052624.777148, 0.017104, -0.016493, 0.002443, 0.044666, 0.015516, 0.950865, 24.767498, 2.122746, 55.373436, 0.026530, -0.057718, -0.052978

1495052624.790521, 0.021991, -0.015882, 0.004887, 0.044666, 0.015516, 0.950865, 24.773365, 2.075209, 55.350525, 0.026611, -0.057712, -0.052916

1495052624.804235, 0.018021, -0.011606, 0.003360, 0.044666, 0.015516, 0.950865, 24.778059, 2.037180, 55.332195, 0.026645, -0.057654, -0.052838

1495052624.817505, 0.018631, -0.017715, 0.001527, 0.029778, 0.015516, 0.966453, 24.822887, 2.067982, 55.410828, 0.026674, -0.057348, -0.052784

1495052624.831206, 0.015577, -0.018021, 0.001527, 0.029778, 0.015516, 0.966453, 24.858749, 2.092623, 55.473736, 0.026669, -0.057060, -0.052749

1495052624.844530, 0.016799, -0.015272, 0.002443, 0.059555, 0.031033, 0.982041, 24.887440, 2.112336, 55.524063, 0.026987, -0.057328, -0.052001

1495052624.857961, 0.020769, -0.014661, 0.002443, 0.059555, 0.015516, 0.935277, 24.910393, 2.128106, 55.540997, 0.027050, -0.057646, -0.052064

1495052624.871352, 0.023824, -0.014355, 0.007330, 0.059555, 0.015516, 0.935277, 24.928755, 2.140722, 55.554546, 0.027149, -0.057955, -0.052073

1495052624.884658, 0.017104, -0.014966, 0.003360, 0.059555, 0.031033, 0.982041, 24.922907, 2.150815, 55.495415, 0.027459, -0.058202, -0.051362

1495052624.897956, 0.018631, -0.015272, 0.002138, 0.059555, 0.031033, 0.982041, 24.918230, 2.158889, 55.448109, 0.027784, -0.058447, -0.050690

1495052624.911277, 0.020769, -0.015272, 0.003971, 0.059555, 0.031033, 0.982041, 24.914488, 2.165349, 55.410263, 0.028129, -0.058688, -0.050015

1495052624.924565, 0.017104, -0.013744, 0.004887, 0.044666, 0.031033, 0.966453, 24.890957, 2.170516, 55.333340, 0.028424, -0.058617, -0.049309

1495052624.937872, 0.019242, -0.014661, 0.003665, 0.044666, 0.031033, 0.966453, 24.872133, 2.174651, 55.271801, 0.028742, -0.058560, -0.048640

1495052624.951140, 0.017410, -0.018326, 0.000916, 0.059555, 0.015516, 0.935277, 24.857075, 2.096325, 55.315865, 0.028725, -0.058898, -0.048768

1495052624.964607, 0.021686, -0.017104, 0.003971, 0.044666, 0.015516, 0.966453, 24.845028, 2.033665, 55.351116, 0.028755, -0.058870, -0.048773

1495052624.977897, 0.021686, -0.018021, 0.002138, 0.044666, 0.015516, 0.966453, 24.835390, 1.983537, 55.379318, 0.028782, -0.058852, -0.048757

1495052624.991518, 0.023518, -0.015882, 0.005803, 0.029778, 0.015516, 0.966453, 24.868752, 1.984251, 55.355232, 0.028837, -0.058505, -0.048653

1495052625.004939, 0.021991, -0.014966, 0.002443, 0.044666, 0.015516, 0.982041, 24.895441, 1.984822, 55.335960, 0.028864, -0.058442, -0.048644

1495052625.018327, 0.018326, -0.014050, 0.004276, 0.044666, 0.015516, 0.982041, 24.916794, 1.903646, 55.273895, 0.028839, -0.058368, -0.048539

1495052625.032037, 0.015272, -0.011301, 0.003360, 0.044666, 0.031033, 0.966453, 24.933876, 1.838705, 55.224243, 0.029102, -0.058276, -0.047586

1495052625.045295, 0.023518, -0.012828, 0.003360, 0.044666, 0.031033, 0.966453, 24.947540, 1.786753, 55.184525, 0.029459, -0.058200, -0.046608

1495052625.058993, 0.019853, -0.011912, 0.002138, 0.074444, 0.031033, 0.966453, 24.937937, 1.908456, 55.129425, 0.029785, -0.058732, -0.045786

1495052625.072344, 0.019853, -0.013439, 0.001222, 0.044666, 0.015516, 0.966453, 24.930254, 2.005818, 55.085346, 0.029770, -0.058657, -0.045860

1495052625.085674, 0.022297, -0.011301, 0.000916, 0.044666, 0.015516, 0.966453, 24.944643, 1.961259, 55.213348, 0.029786, -0.058555, -0.045894

1495052625.099026, 0.022297, -0.016188, 0.002749, 0.044666, 0.015516, 0.950865, 24.956154, 1.925612, 55.315750, 0.029807, -0.058536, -0.045860

1495052625.112353, 0.017104, -0.015272, 0.003971, 0.029778, 0.015516, 0.982041, 24.965363, 1.897095, 55.397675, 0.029747, -0.058172, -0.045770

1495052625.125630, 0.016493, -0.015272, 0.003665, 0.029778, 0.015516, 0.982041, 24.952194, 1.935505, 55.416565, 0.029680, -0.057815, -0.045720

1495052625.138944, 0.020464, -0.012523, 0.002138, 0.044666, 0.015516, 0.966453, 24.941660, 1.966233, 55.431675, 0.029673, -0.057746, -0.045743

1495052625.152276, 0.023824, -0.017104, 0.000916, 0.044666, 0.015516, 0.966453, 24.933231, 1.990816, 55.443764, 0.029712, -0.057738, -0.045805

1495052625.165604, 0.020464, -0.014355, 0.003971, 0.029778, 0.015516, 1.013217, 24.947025, 1.908441, 55.383465, 0.029688, -0.057360, -0.045748

1495052625.178872, 0.023824, -0.010385, 0.002443, 0.044666, 0.015516, 0.966453, 24.958061, 1.842542, 55.335224, 0.029723, -0.057273, -0.045656

1495052625.192529, 0.018631, -0.011301, 0.002138, 0.044666, 0.015516, 0.966453, 25.007961, 1.891863, 55.319954, 0.029698, -0.057203, -0.045611

1495052625.205827, 0.016493, -0.014050, 0.003360, 0.044666, 0.015516, 0.950865, 25.047882, 1.931319, 55.307739, 0.029643, -0.057182, -0.045576

1495052625.219333, 0.018937, -0.016799, 0.001527, 0.059555, 0.015516, 0.966453, 25.079819, 1.962885, 55.297966, 0.029621, -0.057492, -0.045645

1495052625.232963, 0.022602, -0.017715, 0.003360, 0.059555, 0.015516, 0.966453, 25.064295, 1.988137, 55.266827, 0.029649, -0.057810, -0.045712

1495052625.246233, 0.020464, -0.015882, 0.003971, 0.029778, 0.015516, 0.966453, 25.051876, 2.008339, 55.241913, 0.029641, -0.057477, -0.045709

1495052625.259974, 0.023213, -0.013744, 0.003971, 0.044666, 0.015516, 0.950865, 25.000868, 2.044909, 55.291954, 0.029685, -0.057452, -0.045765

1495052625.273319, 0.021075, -0.014050, 0.002443, 0.044666, 0.015516, 0.950865, 24.960062, 2.074164, 55.331989, 0.029692, -0.057426, -0.045870

1495052625.286891, 0.019853, -0.016799, 0.003971, 0.044666, 0.015516, 0.982041, 24.927418, 2.097569, 55.364017, 0.029677, -0.057410, -0.045996

1495052625.300265, 0.019242, -0.017104, 0.003971, 0.044666, 0.015516, 0.982041, 24.962912, 2.075476, 55.366314, 0.029650, -0.057395, -0.046099

1495052625.313596, 0.021686, -0.013439, 0.003971, 0.044666, 0.000000, 0.982041, 24.991306, 2.057802, 55.368153, 0.029343, -0.057320, -0.046955

1495052625.326886, 0.020159, -0.010690, 0.001833, 0.044666, 0.015516, 0.950865, 25.014021, 2.064071, 55.369621, 0.029344, -0.057252, -0.047030

1495052625.340183, 0.020464, -0.014661, 0.002443, 0.044666, 0.015516, 0.950865, 25.032194, 2.069086, 55.370796, 0.029350, -0.057237, -0.047101

1495052625.353440, 0.022297, -0.014661, 0.003665, 0.029778, 0.000000, 0.966453, 25.046732, 2.073098, 55.371738, 0.029060, -0.056888, -0.047882

1495052625.366776, 0.022297, -0.014050, 0.003360, 0.059555, 0.015516, 0.966453, 25.037827, 2.055900, 55.372490, 0.029089, -0.057165, -0.047967

1495052625.380045, 0.018631, -0.018326, 0.001833, 0.059555, 0.015516, 0.966453, 25.030701, 2.042141, 55.373093, 0.029070, -0.057491, -0.048059

1495052625.393621, 0.014355, -0.019242, 0.002749, 0.029778, 0.015516, 0.966453, 25.004465, 2.051542, 55.373573, 0.028999, -0.057214, -0.048062

1495052625.406924, 0.018937, -0.016188, 0.003360, 0.029778, 0.015516, 0.966453, 24.983477, 2.059063, 55.373959, 0.028985, -0.056897, -0.048065

1495052625.420524, 0.022297, -0.018631, 0.002749, 0.029778, 0.015516, 0.982041, 24.966684, 2.065079, 55.374268, 0.029018, -0.056615, -0.048092

1495052625.434048, 0.021686, -0.015577, 0.001527, 0.044666, 0.015516, 0.982041, 24.953251, 2.069893, 55.327866, 0.029041, -0.056598, -0.048181

1495052625.447348, 0.019242, -0.016799, 0.003971, 0.044666, 0.015516, 0.982041, 24.942505, 2.073744, 55.290745, 0.029025, -0.056594, -0.048240

1495052625.461118, 0.017715, -0.014355, 0.003971, 0.059555, 0.015516, 0.966453, 24.933908, 2.076824, 55.307697, 0.029001, -0.056888, -0.048334

1495052625.474422, 0.014661, -0.011301, 0.003360, 0.044666, 0.000000, 0.950865, 24.927031, 2.079289, 55.321259, 0.028615, -0.056824, -0.049184

1495052625.487952, 0.015577, -0.015577, 0.003665, 0.044666, 0.000000, 0.950865, 24.921528, 2.081260, 55.332108, 0.028251, -0.056822, -0.050016

1495052625.501327, 0.021075, -0.014355, 0.003971, 0.044666, 0.031033, 0.950865, 24.896589, 2.042021, 55.317463, 0.028608, -0.056812, -0.049182

1495052625.514638, 0.023213, -0.013439, 0.005192, 0.044666, 0.031033, 0.950865, 24.876638, 2.010630, 55.305748, 0.028983, -0.056790, -0.048320

1495052625.527952, 0.021380, -0.016188, 0.005498, 0.044666, 0.031033, 0.982041, 24.860678, 1.965109, 55.273052, 0.029306, -0.056775, -0.047484

1495052625.541269, 0.017410, -0.017104, 0.007025, 0.029778, 0.000000, 0.982041, 24.847910, 1.928692, 55.246895, 0.028952, -0.056462, -0.048103

1495052625.554519, 0.015272, -0.013439, 0.002749, 0.029778, 0.000000, 0.982041, 24.837696, 1.899558, 55.225967, 0.028578, -0.056105, -0.048740

1495052625.567829, 0.017104, -0.014050, 0.001222, 0.029778, 0.000000, 0.966453, 24.850061, 1.917068, 55.232552, 0.028237, -0.055773, -0.049401

1495052625.581099, 0.024129, -0.018326, 0.005803, 0.029778, 0.015516, 0.950865, 24.859953, 1.931075, 55.237816, 0.028307, -0.055524, -0.049232

1495052625.594630, 0.021075, -0.018326, 0.003054, 0.029778, 0.015516, 0.950865, 24.888403, 1.942281, 55.218704, 0.028344, -0.055285, -0.049109

1495052625.607945, 0.016188, -0.013439, 0.002749, 0.014889, 0.015516, 0.950865, 24.911163, 1.951246, 55.203415, 0.028311, -0.054669, -0.048964

1495052625.621448, 0.021991, -0.014050, 0.003054, 0.014889, 0.015516, 0.950865, 24.929371, 1.958418, 55.191185, 0.028358, -0.054076, -0.048824

1495052625.635014, 0.024435, -0.010996, 0.003665, 0.044666, 0.000000, 0.950865, 24.943937, 2.025380, 55.181400, 0.028116, -0.054069, -0.049610

1495052625.648289, 0.021075, -0.008552, 0.004887, 0.059555, 0.015516, 0.966453, 24.955589, 2.078949, 55.173573, 0.028145, -0.054331, -0.049666

1495052625.662017, 0.019548, -0.016493, 0.003054, 0.059555, 0.015516, 0.966453, 24.944376, 2.080989, 55.190636, 0.028164, -0.054697, -0.049749

1495052625.675362, 0.023213, -0.014050, 0.003971, 0.044666, 0.015516, 0.997629, 24.935404, 2.082620, 55.204285, 0.028213, -0.054683, -0.049795

1495052625.688733, 0.018326, -0.014050, 0.003360, 0.029778, 0.015516, 0.935277, 24.928226, 2.083926, 55.215202, 0.028219, -0.054411, -0.049766

1495052625.702132, 0.018631, -0.016188, 0.005192, 0.029778, 0.015516, 0.935277, 24.922485, 2.084970, 55.200615, 0.028228, -0.054174, -0.049714

1495052625.715432, 0.016493, -0.018326, 0.006414, 0.059555, 0.015516, 0.982041, 24.917892, 2.085805, 55.188946, 0.028190, -0.054542, -0.049770

1495052625.728721, 0.023824, -0.020464, 0.006720, 0.059555, 0.015516, 0.982041, 24.893681, 2.086474, 55.179611, 0.028248, -0.054930, -0.049823

1495052625.742035, 0.022602, -0.016493, 0.003971, 0.029778, 0.031033, 0.966453, 24.874311, 2.087008, 55.172142, 0.028608, -0.054663, -0.049054

1495052625.755331, 0.021075, -0.008858, -0.000000, 0.044666, 0.015516, 0.982041, 24.858816, 2.087436, 55.166168, 0.028628, -0.054593, -0.049163

1495052625.768647, 0.016188, -0.010690, 0.000916, 0.044666, 0.015516, 0.982041, 24.866957, 2.087778, 55.184711, 0.028583, -0.054549, -0.049258

1495052625.781904, 0.015882, -0.013744, -0.000611, 0.044666, 0.015516, 0.966453, 24.873468, 2.088052, 55.199547, 0.028540, -0.054560, -0.049362

1495052625.795485, 0.018021, -0.017410, -0.001527, 0.044666, 0.031033, 0.966453, 24.837606, 2.129087, 55.188091, 0.028849, -0.054622, -0.048722

1495052625.808869, 0.015882, -0.012523, 0.005803, 0.044666, 0.031033, 0.966453, 24.808916, 2.161915, 55.178925, 0.029116, -0.054618, -0.048027

1495052625.822286, 0.021991, -0.014355, 0.003054, 0.044666, 0.015516, 0.966453, 24.785963, 2.188178, 55.171593, 0.029143, -0.054638, -0.048202

1495052625.835981, 0.018021, -0.016188, 0.001833, 0.044666, 0.015516, 0.966453, 24.767601, 2.209188, 55.282349, 0.029123, -0.054685, -0.048408

1495052625.849264, 0.024435, -0.014355, 0.005192, 0.029778, 0.015516, 0.982041, 24.752913, 2.225996, 55.370953, 0.029173, -0.054385, -0.048545

1495052625.862971, 0.020464, -0.015272, 0.004581, 0.029778, 0.015516, 0.966453, 24.802771, 2.137402, 55.348537, 0.029184, -0.054119, -0.048596

1495052625.876432, 0.021380, -0.014355, 0.002749, 0.029778, 0.015516, 0.966453, 24.842657, 2.066526, 55.330605, 0.029202, -0.053843, -0.048608

1495052625.889721, 0.019853, -0.013439, 0.003360, 0.059555, 0.031033, 0.966453, 24.874565, 2.009825, 55.316261, 0.029519, -0.054172, -0.047815

1495052625.903846, 0.022907, -0.015882, 0.004887, 0.044666, 0.031033, 0.982041, 24.859020, 2.066506, 55.351433, 0.029872, -0.054218, -0.047082

1495052625.917192, 0.018021, -0.016188, 0.000916, 0.044666, 0.031033, 0.982041, 24.846584, 2.111850, 55.379570, 0.030139, -0.054254, -0.046459

1495052625.930470, 0.020464, -0.014355, 0.003360, 0.029778, 0.015516, 0.966453, 24.816099, 2.127717, 55.378757, 0.030123, -0.053972, -0.046560

1495052625.943981, 0.023824, -0.018021, 0.003971, 0.029778, 0.000000, 0.982041, 24.791710, 2.140411, 55.378105, 0.029844, -0.053725, -0.047425

1495052625.957290, 0.022907, -0.019242, -0.000305, 0.059555, 0.000000, 0.982041, 24.772200, 2.150567, 55.377586, 0.029543, -0.054097, -0.048495

1495052625.970935, 0.020159, -0.015577, 0.002138, 0.044666, 0.000000, 0.966453, 24.797663, 2.117874, 55.353844, 0.029224, -0.054135, -0.049401

1495052625.984398, 0.020769, -0.015882, -0.000916, 0.044666, 0.000000, 0.966453, 24.818033, 2.091721, 55.334850, 0.028919, -0.054172, -0.050305

1495052625.997677, 0.021075, -0.015882, 0.000611, 0.029778, 0.015516, 0.950865, 24.793257, 2.132022, 55.319656, 0.028941, -0.053921, -0.050359

1495052626.013475, 0.015882, -0.014966, -0.000305, 0.044666, 0.015516, 0.982041, 24.773436, 2.164263, 55.307503, 0.028925, -0.053982, -0.050522

1495052626.026773, 0.018631, -0.016188, 0.001527, 0.044666, 0.015516, 0.982041, 24.757580, 2.190056, 55.297779, 0.028906, -0.054022, -0.050680

1495052626.042657, 0.016188, -0.014966, 0.002138, 0.074444, 0.015516, 0.966453, 24.744894, 2.190282, 55.290001, 0.028897, -0.054711, -0.050916

1495052626.055981, 0.014355, -0.011301, 0.002749, 0.044666, 0.015516, 0.966453, 24.734747, 2.190463, 55.283775, 0.028826, -0.054688, -0.051040

1495052626.071748, 0.021380, -0.017410, 0.003971, 0.044666, 0.015516, 0.966453, 24.767702, 2.149792, 55.278797, 0.028899, -0.054787, -0.051100

1495052626.085091, 0.015577, -0.013134, 0.003665, 0.044666, 0.000000, 0.919689, 24.794065, 2.117254, 55.274815, 0.028525, -0.054823, -0.051945

1495052626.100946, 0.018021, -0.014050, 0.003360, 0.029778, 0.046549, 0.950865, 24.774084, 2.132041, 55.318275, 0.029192, -0.054556, -0.050365

1495052626.114238, 0.018021, -0.011912, 0.002138, 0.029778, 0.046549, 0.950865, 24.758099, 2.143870, 55.353046, 0.029803, -0.054232, -0.048847

1495052626.130246, 0.016188, -0.014355, 0.003665, 0.059555, 0.015516, 0.966453, 24.745310, 2.153333, 55.380863, 0.029779, -0.054604, -0.049006

1495052626.143540, 0.020464, -0.011912, 0.005498, 0.059555, 0.000000, 0.982041, 24.796688, 2.160904, 55.403114, 0.029443, -0.054865, -0.049973

1495052626.159527, 0.016188, -0.012217, 0.006720, 0.044666, 0.015516, 0.966453, 24.837791, 2.166961, 55.420918, 0.029425, -0.054885, -0.050019

1495052626.172821, 0.022297, -0.014661, 0.005498, 0.044666, 0.015516, 0.966453, 24.809065, 2.151398, 55.411835, 0.029445, -0.054903, -0.050086

1495052626.188734, 0.023213, -0.016188, 0.001222, 0.029778, 0.000000, 0.950865, 24.786083, 2.138948, 55.404568, 0.029227, -0.054672, -0.050917

1495052626.202018, 0.021380, -0.011301, 0.001527, 0.029778, 0.000000, 0.966453, 24.829308, 2.149395, 55.398754, 0.028929, -0.054330, -0.051731

1495052626.217995, 0.022907, -0.017410, 0.005803, 0.029778, 0.000000, 0.966453, 24.863886, 2.157754, 55.394104, 0.028714, -0.054123, -0.052466

1495052626.231296, 0.021686, -0.014661, 0.002138, 0.044666, 0.015516, 0.966453, 24.891548, 2.164440, 55.390385, 0.028743, -0.054155, -0.052536

1495052626.247111, 0.020464, -0.016493, 0.002138, 0.044666, 0.015516, 0.997629, 24.872606, 2.149382, 55.340759, 0.028795, -0.054223, -0.052608

1495052626.260405, 0.012217, -0.012523, 0.002138, 0.044666, 0.015516, 0.997629, 24.857452, 2.137335, 55.301060, 0.028689, -0.054196, -0.052673

1495052626.276116, 0.015577, -0.014355, 0.001527, 0.029778, 0.031033, 0.966453, 24.845329, 2.066473, 55.362595, 0.028987, -0.053949, -0.051852

1495052626.289418, 0.015882, -0.014966, 0.001527, 0.059555, 0.031033, 0.982041, 24.835630, 2.009783, 55.411823, 0.029248, -0.054275, -0.051042

1495052626.305326, 0.019853, -0.014966, 0.005192, 0.059555, 0.031033, 0.982041, 24.868944, 2.005247, 55.521179, 0.029602, -0.054635, -0.050181

1495052626.318625, 0.012828, -0.015882, 0.003360, 0.029778, 0.031033, 0.966453, 24.895596, 2.001619, 55.608662, 0.029808, -0.054366, -0.049326

1495052626.334485, 0.016493, -0.012828, 0.001527, 0.044666, 0.031033, 0.950865, 24.957989, 2.019125, 55.562031, 0.030116, -0.054416, -0.048506

1495052626.347786, 0.019242, -0.015577, -0.000611, 0.044666, 0.031033, 0.950865, 25.007904, 2.033129, 55.524727, 0.030415, -0.054467, -0.047747

1495052626.363658, 0.018326, -0.016188, -0.000000, 0.044666, 0.015516, 0.982041, 25.047836, 2.044333, 55.494881, 0.030408, -0.054538, -0.047836

1495052626.376961, 0.017410, -0.016799, 0.001527, 0.014889, 0.015516, 0.935277, 24.997637, 2.094112, 55.447681, 0.030358, -0.053985, -0.047833

1495052626.392761, 0.018326, -0.014966, 0.001527, 0.014889, 0.015516, 0.966453, 24.957478, 2.133935, 55.409920, 0.030356, -0.053445, -0.047886

1495052626.406055, 0.020159, -0.013134, 0.002443, 0.044666, 0.015516, 0.966453, 25.007496, 2.165794, 55.356388, 0.030332, -0.053471, -0.048038

1495052626.419770, 0.020159, -0.014050, 0.002138, 0.044666, 0.031033, 0.982041, 25.047510, 2.191281, 55.313564, 0.030625, -0.053499, -0.047448

1495052626.433122, 0.016493, -0.014966, 0.002138, 0.044666, 0.031033, 0.982041, 25.079521, 2.211670, 55.279305, 0.030857, -0.053534, -0.046890

1495052626.446459, 0.021380, -0.015577, 0.000305, 0.059555, 0.031033, 0.950865, 25.064056, 2.166757, 55.275219, 0.031174, -0.053917, -0.046291

1495052626.459745, 0.018631, -0.016493, 0.002443, 0.074444, 0.000000, 0.966453, 25.051685, 2.130827, 55.271950, 0.030780, -0.054574, -0.047394

1495052626.473068, 0.017410, -0.015272, 0.002138, 0.074444, 0.000000, 0.966453, 25.021252, 2.102082, 55.269337, 0.030379, -0.055204, -0.048454

1495052626.486365, 0.020769, -0.017104, 0.005498, 0.014889, 0.015516, 0.966453, 24.996904, 2.079087, 55.267246, 0.030360, -0.054633, -0.048401

1495052626.499786, 0.021380, -0.014661, 0.004581, 0.014889, 0.015516, 0.966453, 24.977427, 2.060691, 55.265572, 0.030352, -0.054043, -0.048345

1495052626.513087, 0.021075, -0.013134, 0.003360, 0.044666, 0.000000, 0.966453, 24.961845, 2.066382, 55.217587, 0.030021, -0.054045, -0.049178

1495052626.526755, 0.017410, -0.013134, 0.003054, 0.044666, 0.000000, 0.950865, 24.949381, 2.070935, 55.179199, 0.029655, -0.054067, -0.050006

1495052626.540200, 0.019548, -0.013439, 0.006414, 0.044666, 0.000000, 0.950865, 24.980482, 2.094985, 55.195137, 0.029318, -0.054092, -0.050793

1495052626.553519, 0.020159, -0.014966, 0.005803, 0.044666, 0.015516, 0.966453, 25.005362, 2.114226, 55.207886, 0.029313, -0.054131, -0.050799

1495052626.567295, 0.019853, -0.018326, 0.003971, 0.044666, 0.031033, 0.966453, 25.025267, 2.129618, 55.218086, 0.029631, -0.054219, -0.050055

1495052626.580636, 0.022297, -0.017410, 0.001833, 0.044666, 0.031033, 0.966453, 25.020653, 2.162340, 55.296215, 0.029968, -0.054286, -0.049381

1495052626.594003, 0.018937, -0.015882, 0.003665, 0.044666, 0.015516, 0.966453, 25.016962, 2.188518, 55.358719, 0.029937, -0.054332, -0.049508

1495052626.607311, 0.018937, -0.012828, 0.004887, 0.029778, 0.031033, 0.982041, 24.993473, 2.148235, 55.362076, 0.030206, -0.054020, -0.048801

1495052626.620630, 0.019853, -0.011606, 0.001527, 0.029778, 0.031033, 0.982041, 24.974682, 2.116009, 55.364761, 0.030484, -0.053697, -0.048124

1495052626.633902, 0.019853, -0.012217, 0.003360, 0.044666, 0.015516, 0.982041, 24.959650, 2.090229, 55.366909, 0.030447, -0.053691, -0.048204

1495052626.647249, 0.018326, -0.013439, 0.004276, 0.044666, 0.015516, 0.982041, 24.947624, 2.090012, 55.298656, 0.030391, -0.053703, -0.048273

1495052626.660535, 0.018326, -0.013744, 0.003360, 0.059555, 0.015516, 0.966453, 24.938004, 2.089839, 55.244053, 0.030341, -0.054039, -0.048388

1495052626.674167, 0.021686, -0.013744, 0.002443, 0.029778, 0.015516, 0.950865, 24.950844, 2.130517, 55.247017, 0.030350, -0.053768, -0.048448

1495052626.687493, 0.018631, -0.012523, 0.003360, 0.029778, 0.015516, 0.950865, 24.961115, 2.163059, 55.249390, 0.030311, -0.053483, -0.048522

1495052626.700862, 0.019242, -0.017410, 0.003360, 0.029778, 0.015516, 0.950865, 24.969332, 2.189093, 55.251289, 0.030283, -0.053268, -0.048619

1495052626.714559, 0.022297, -0.019242, 0.004276, 0.044666, 0.015516, 0.966453, 24.934834, 2.128287, 55.252808, 0.030296, -0.053385, -0.048705

1495052626.727876, 0.018021, -0.014050, 0.003971, 0.044666, 0.015516, 0.966453, 24.907234, 2.079643, 55.254021, 0.030244, -0.053425, -0.048751

1495052626.741351, 0.018326, -0.011606, 0.003665, 0.059555, 0.015516, 0.966453, 24.905691, 2.040727, 55.231670, 0.030199, -0.053741, -0.048807

1495052626.754868, 0.018021, -0.015577, 0.005803, 0.059555, 0.015516, 0.966453, 24.904457, 2.009594, 55.213791, 0.030152, -0.054105, -0.048807

1495052626.768165, 0.024129, -0.016493, 0.004887, 0.059555, 0.031033, 0.935277, 24.903469, 1.984688, 55.199486, 0.030527, -0.054510, -0.047917

1495052626.781459, 0.020464, -0.012523, 0.003054, 0.044666, 0.015516, 0.966453, 24.902679, 1.985172, 55.234688, 0.030502, -0.054507, -0.047906

1495052626.794756, 0.014966, -0.015272, 0.005803, 0.044666, 0.015516, 0.966453, 24.902048, 1.985559, 55.262852, 0.030405, -0.054542, -0.047860

1495052626.808071, 0.020464, -0.012828, 0.003360, 0.044666, 0.015516, 0.950865, 24.942616, 2.006276, 55.285381, 0.030388, -0.054558, -0.047851

1495052626.821559, 0.019853, -0.015882, 0.002443, 0.029778, 0.015516, 0.997629, 24.975069, 2.022850, 55.303406, 0.030353, -0.054274, -0.047861

1495052626.834832, 0.023213, -0.013134, 0.003971, 0.029778, 0.015516, 0.997629, 25.001032, 2.036109, 55.317825, 0.030357, -0.053958, -0.047860

1495052626.848425, 0.020159, -0.019548, 0.001833, 0.029778, 0.015516, 0.966453, 24.960194, 2.005900, 55.329361, 0.030338, -0.053756, -0.047844

1495052626.862005, 0.020769, -0.016188, 0.004276, 0.029778, 0.015516, 0.966453, 24.927523, 1.981733, 55.338589, 0.030326, -0.053514, -0.047775

1495052626.875325, 0.021075, -0.013439, 0.003360, 0.029778, 0.015516, 0.950865, 24.921923, 1.982808, 55.322647, 0.030319, -0.053246, -0.047709

1495052626.889020, 0.020159, -0.013744, -0.000916, 0.044666, 0.031033, 0.982041, 24.917442, 1.983667, 55.309895, 0.030613, -0.053274, -0.046983

1495052626.902387, 0.019548, -0.018021, 0.001527, 0.044666, 0.031033, 0.982041, 24.913858, 1.984355, 55.299690, 0.030885, -0.053353, -0.046242

1495052626.915707, 0.016493, -0.016493, 0.005192, 0.029778, 0.015516, 0.950865, 24.910990, 2.025721, 55.338177, 0.030806, -0.053129, -0.046221

1495052626.929014, 0.016799, -0.019548, 0.003054, 0.014889, 0.015516, 0.966453, 24.908695, 2.058815, 55.368965, 0.030729, -0.052630, -0.046231

1495052626.942337, 0.019242, -0.013744, 0.002138, 0.014889, 0.015516, 0.966453, 24.865788, 2.064881, 55.346947, 0.030686, -0.052066, -0.046258

1495052626.955616, 0.022907, -0.014966, 0.003971, 0.044666, 0.031033, 0.950865, 24.831461, 2.069734, 55.329334, 0.031019, -0.052158, -0.045525

1495052626.969052, 0.022602, -0.014966, 0.004581, 0.044666, 0.031033, 0.950865, 24.803999, 2.073617, 55.315243, 0.031344, -0.052252, -0.044802

1495052626.982329, 0.020159, -0.014966, -0.000000, 0.044666, 0.031033, 0.997629, 24.782030, 2.035906, 55.303970, 0.031599, -0.052296, -0.044195

1495052626.995981, 0.018021, -0.015577, 0.002443, 0.029778, 0.015516, 0.966453, 24.764456, 2.005738, 55.294952, 0.031529, -0.052075, -0.044251

1495052627.009442, 0.017715, -0.018021, 0.003665, 0.029778, 0.015516, 0.966453, 24.812004, 2.002011, 55.287739, 0.031452, -0.051888, -0.044286

1495052627.022702, 0.017715, -0.016493, 0.005498, 0.029778, 0.000000, 0.950865, 24.850044, 1.999030, 55.281967, 0.031058, -0.051680, -0.045055

1495052627.036570, 0.024740, -0.012828, 0.003360, 0.044666, 0.015516, 0.950865, 24.880476, 1.996645, 55.277351, 0.031097, -0.051760, -0.045096

1495052627.049905, 0.021075, -0.015882, 0.005192, 0.044666, 0.015516, 0.950865, 24.945894, 1.974329, 55.250336, 0.031074, -0.051873, -0.045092

1495052627.063201, 0.018326, -0.012828, 0.004887, 0.044666, 0.015516, 0.982041, 24.998228, 1.956476, 55.228722, 0.031005, -0.051913, -0.045095

1495052627.076512, 0.018937, -0.009163, 0.002443, 0.044666, 0.015516, 0.982041, 24.937414, 1.921786, 55.258080, 0.030946, -0.051904, -0.045099

1495052627.089809, 0.019242, -0.015577, 0.003054, 0.074444, 0.015516, 0.966453, 24.888762, 1.894033, 55.281563, 0.030897, -0.052607, -0.045145

1495052627.103082, 0.018326, -0.015882, 0.004581, 0.059555, 0.015516, 0.966453, 24.849840, 1.871831, 55.300350, 0.030836, -0.052993, -0.045109

1495052627.116440, 0.019548, -0.016188, 0.004581, 0.059555, 0.015516, 0.966453, 24.839239, 1.915294, 55.338703, 0.030793, -0.053377, -0.045114

1495052627.129711, 0.020769, -0.017104, 0.003360, 0.029778, 0.046549, 0.966453, 24.830759, 1.950065, 55.369389, 0.031391, -0.053136, -0.043558

1495052627.143313, 0.020769, -0.016799, 0.005192, 0.029778, 0.031033, 0.966453, 24.823975, 1.916657, 55.347286, 0.031670, -0.052915, -0.042745

1495052627.156750, 0.019853, -0.012828, -0.000611, 0.029778, 0.031033, 0.966453, 24.839083, 1.889930, 55.329605, 0.031933, -0.052641, -0.042002

1495052627.170128, 0.018631, -0.009774, 0.004581, 0.059555, 0.015516, 0.950865, 24.851170, 1.868549, 55.315460, 0.031862, -0.052969, -0.042011

1495052627.183872, 0.019242, -0.013439, 0.002138, 0.059555, 0.015516, 0.950865, 24.881376, 1.871852, 55.327469, 0.031808, -0.053341, -0.042056

1495052627.197173, 0.017410, -0.010996, 0.000305, 0.029778, 0.015516, 0.950865, 24.905540, 1.874494, 55.337074, 0.031725, -0.053044, -0.042050

1495052627.210726, 0.014050, -0.012217, 0.002443, 0.044666, 0.015516, 0.950865, 24.924873, 1.856200, 55.344761, 0.031603, -0.053085, -0.042035

1495052627.224123, 0.018021, -0.012217, 0.003054, 0.044666, 0.015516, 0.950865, 24.899265, 1.841565, 55.350910, 0.031532, -0.053124, -0.042000

1495052627.237448, 0.021991, -0.014050, 0.003054, 0.044666, 0.015516, 0.982041, 24.878780, 1.829857, 55.355827, 0.031503, -0.053155, -0.041979

1495052627.250744, 0.023518, -0.015577, 0.005498, 0.029778, 0.015516, 0.966453, 24.882929, 1.902123, 55.336437, 0.031497, -0.052913, -0.041945

1495052627.264072, 0.022602, -0.014050, 0.003665, 0.029778, 0.015516, 0.966453, 24.886248, 1.959936, 55.320927, 0.031482, -0.052655, -0.041985

1495052627.277379, 0.022602, -0.018021, 0.004276, 0.059555, 0.015516, 0.982041, 24.888903, 2.006186, 55.308517, 0.031460, -0.053048, -0.042151

1495052627.290757, 0.018326, -0.014050, 0.001833, 0.059555, 0.015516, 0.982041, 24.849953, 2.022778, 55.321915, 0.031385, -0.053381, -0.042360

1495052627.304035, 0.022297, -0.014355, 0.004887, 0.044666, 0.015516, 0.966453, 24.818792, 2.036052, 55.332634, 0.031366, -0.053425, -0.042485

1495052627.317720, 0.022602, -0.012828, 0.003971, 0.044666, -0.015483, 0.950865, 24.814402, 2.026263, 55.341209, 0.030720, -0.053427, -0.044207

1495052627.331147, 0.019242, -0.015577, 0.001222, 0.044666, -0.015483, 0.950865, 24.810888, 2.018431, 55.348068, 0.030039, -0.053462, -0.045927

1495052627.344423, 0.021991, -0.014966, 0.002138, 0.029778, 0.000000, 0.935277, 24.808079, 2.012166, 55.353554, 0.029731, -0.053213, -0.046723

1495052627.358193, 0.021075, -0.013744, 0.002749, 0.044666, 0.000000, 0.966453, 24.846903, 1.986746, 55.287971, 0.029423, -0.053247, -0.047534

1495052627.371561, 0.021075, -0.015272, 0.005803, 0.044666, 0.000000, 0.966453, 24.877962, 1.966409, 55.235504, 0.029109, -0.053296, -0.048270

1495052627.384860, 0.021686, -0.013744, 0.007330, 0.029778, 0.015516, 0.966453, 24.902809, 1.990957, 55.240181, 0.029126, -0.053028, -0.048163

1495052627.398132, 0.013744, -0.017410, 0.003971, 0.014889, 0.015516, 0.982041, 24.922688, 2.010595, 55.243919, 0.029035, -0.052498, -0.048094

1495052627.411447, 0.016188, -0.011606, 0.002138, 0.014889, 0.015516, 0.982041, 24.938591, 2.026305, 55.246910, 0.028980, -0.051904, -0.048060

1495052627.424728, 0.017410, -0.016493, 0.001833, 0.044666, 0.000000, 0.966453, 24.910240, 2.079690, 55.225983, 0.028629, -0.051992, -0.048936

1495052627.438051, 0.018937, -0.015272, 0.001833, 0.044666, 0.000000, 0.966453, 24.887560, 2.122397, 55.209240, 0.028305, -0.052063, -0.049834

1495052627.451333, 0.020464, -0.013439, 0.003665, 0.044666, 0.031033, 0.966453, 24.931025, 2.156564, 55.242493, 0.028643, -0.052120, -0.049137

1495052627.464974, 0.014966, -0.011912, 0.001222, 0.029778, 0.031033, 0.966453, 24.965796, 2.183897, 55.269096, 0.028905, -0.051852, -0.048495

1495052627.478370, 0.017104, -0.016493, 0.002749, 0.029778, 0.031033, 0.966453, 24.993612, 2.205763, 55.290379, 0.029186, -0.051647, -0.047865

1495052627.491721, 0.019853, -0.013744, -0.001527, 0.059555, 0.031033, 0.966453, 24.974794, 2.202848, 55.284081, 0.029508, -0.052023, -0.047330

1495052627.505441, 0.018937, -0.015577, 0.001527, 0.044666, 0.000000, 0.982041, 24.959740, 2.200516, 55.279041, 0.029175, -0.052087, -0.048324

1495052627.518745, 0.025656, -0.010385, 0.005192, 0.044666, 0.000000, 0.982041, 24.988768, 2.157834, 55.321659, 0.028926, -0.052078, -0.049208

1495052627.532249, 0.024129, -0.013744, 0.004581, 0.059555, 0.015516, 0.950865, 25.011992, 2.123688, 55.355751, 0.028989, -0.052470, -0.049304

1495052627.545652, 0.024435, -0.015882, 0.004581, 0.059555, 0.015516, 0.950865, 25.030569, 2.096371, 55.383026, 0.029053, -0.052881, -0.049372

1495052627.558994, 0.022602, -0.016493, 0.003665, 0.029778, 0.000000, 0.935277, 24.963285, 2.115335, 55.381523, 0.028774, -0.052665, -0.050157

1495052627.572286, 0.020464, -0.013439, 0.003971, 0.044666, 0.015516, 0.982041, 24.909460, 2.130505, 55.380318, 0.028779, -0.052696, -0.050227

1495052627.585644, 0.021686, -0.013744, 0.003665, 0.044666, 0.015516, 0.982041, 24.928009, 2.101825, 55.332706, 0.028802, -0.052732, -0.050274

1495052627.598928, 0.016188, -0.014966, 0.004276, 0.044666, 0.015516, 0.966453, 24.942848, 2.078881, 55.294617, 0.028755, -0.052797, -0.050282

1495052627.612259, 0.019242, -0.017104, 0.002749, 0.044666, 0.015516, 0.950865, 24.954720, 2.060526, 55.264145, 0.028756, -0.052904, -0.050283

1495052627.625531, 0.020464, -0.014050, 0.003665, 0.044666, 0.015516, 0.950865, 24.923143, 2.045842, 55.286415, 0.028772, -0.052968, -0.050258

1495052627.639215, 0.020464, -0.013744, 0.004581, 0.029778, 0.031033, 0.982041, 24.897882, 2.034095, 55.304234, 0.029091, -0.052700, -0.049444

1495052627.652600, 0.018631, -0.016188, 0.000305, 0.029778, 0.031033, 0.982041, 24.877674, 2.085921, 55.341812, 0.029378, -0.052464, -0.048748

1495052627.665950, 0.018021, -0.012828, 0.001527, 0.044666, 0.031033, 0.982041, 24.861507, 2.127383, 55.371876, 0.029655, -0.052491, -0.048097

1495052627.679695, 0.018937, -0.007636, -0.000305, 0.044666, 0.015516, 0.950865, 24.848574, 2.160552, 55.395924, 0.029644, -0.052481, -0.048271

1495052627.692980, 0.017410, -0.012217, 0.003054, 0.044666, 0.015516, 0.950865, 24.838226, 2.146271, 55.368515, 0.029603, -0.052529, -0.048387

1495052627.706488, 0.017104, -0.015272, 0.001222, 0.029778, 0.000000, 0.950865, 24.829948, 2.134846, 55.346588, 0.029245, -0.052295, -0.049247

1495052627.719879, 0.025656, -0.014661, 0.001222, 0.044666, 0.000000, 0.935277, 24.884935, 2.105298, 55.375694, 0.028999, -0.052383, -0.050140

1495052627.733179, 0.021991, -0.014050, -0.000305, 0.044666, 0.000000, 0.935277, 24.928925, 2.081659, 55.398979, 0.028708, -0.052460, -0.051011

1495052627.746463, 0.023518, -0.017715, 0.005498, 0.029778, 0.015516, 0.950865, 24.964117, 2.062748, 55.417606, 0.028763, -0.052270, -0.050920

1495052627.759789, 0.018937, -0.015577, 0.002443, 0.029778, 0.015516, 0.950865, 24.951197, 2.047620, 55.362537, 0.028759, -0.052055, -0.050858

1495052627.773068, 0.022907, -0.012828, 0.003665, 0.044666, 0.031033, 0.950865, 24.940861, 2.035517, 55.318481, 0.029130, -0.052119, -0.050004

1495052627.786504, 0.018326, -0.013134, 0.002749, 0.059555, 0.031033, 0.966453, 24.932592, 2.066651, 55.329887, 0.029433, -0.052480, -0.049242

1495052627.799743, 0.023213, -0.013439, 0.002138, 0.059555, 0.031033, 0.966453, 24.925978, 2.091558, 55.339012, 0.029789, -0.052835, -0.048528

1495052627.813374, 0.018326, -0.014966, -0.000916, 0.044666, 0.031033, 0.982041, 24.920687, 2.111484, 55.346310, 0.030068, -0.052886, -0.047899

1495052627.826811, 0.021075, -0.011912, 0.005192, 0.044666, 0.015516, 0.997629, 24.854843, 2.107016, 55.305500, 0.030053, -0.052881, -0.047991

1495052627.840163, 0.016799, -0.015272, 0.000611, 0.044666, 0.015516, 0.997629, 24.802170, 2.103442, 55.272854, 0.029983, -0.052917, -0.048142

1495052627.853954, 0.016799, -0.014966, 0.002138, 0.059555, 0.031033, 0.966453, 24.842176, 2.059767, 55.293385, 0.030254, -0.053291, -0.047422

1495052627.867278, 0.018326, -0.014966, 0.004276, 0.059555, 0.031033, 0.966453, 24.874182, 2.024826, 55.309807, 0.030530, -0.053652, -0.046656

1495052627.880812, 0.019242, -0.013134, 0.001833, 0.044666, 0.031033, 0.982041, 24.899786, 1.996874, 55.322945, 0.030803, -0.053662, -0.045926

1495052627.894195, 0.021991, -0.015272, 0.003665, 0.029778, 0.000000, 0.950865, 24.879196, 2.056145, 55.286808, 0.030482, -0.053404, -0.046732

1495052627.907534, 0.017104, -0.015577, 0.002443, 0.029778, 0.000000, 0.950865, 24.862724, 2.103561, 55.257900, 0.030104, -0.053153, -0.047580

1495052627.920815, 0.015882, -0.014355, 0.003971, 0.044666, 0.046549, 0.966453, 24.870083, 2.059862, 55.304745, 0.030664, -0.053188, -0.046042

1495052627.934106, 0.017715, -0.014966, 0.003665, 0.044666, 0.015516, 0.982041, 24.875971, 2.024902, 55.342220, 0.030595, -0.053229, -0.046107

1495052627.947494, 0.021991, -0.013134, 0.006109, 0.044666, 0.015516, 0.982041, 24.880680, 1.996935, 55.372200, 0.030584, -0.053247, -0.046113

1495052627.960797, 0.018937, -0.013744, 0.005803, 0.059555, -0.015483, 0.950865, 24.863911, 2.035785, 55.326214, 0.029883, -0.053573, -0.047856

1495052627.974068, 0.022297, -0.014661, 0.004887, 0.059555, -0.015483, 0.950865, 24.850496, 2.066865, 55.289425, 0.029240, -0.053903, -0.049606

1495052627.987741, 0.025656, -0.013439, 0.006414, 0.044666, 0.015516, 0.919689, 24.839764, 2.050913, 55.306641, 0.029332, -0.053978, -0.049541

1495052628.001149, 0.021075, -0.016188, 0.004276, 0.059555, 0.000000, 0.950865, 24.831179, 2.038152, 55.320412, 0.029016, -0.054351, -0.050409

1495052628.014504, 0.021991, -0.016493, 0.006720, 0.059555, 0.000000, 0.950865, 24.824310, 2.027942, 55.331429, 0.028716, -0.054720, -0.051218

1495052628.028225, 0.015577, -0.013439, 0.000305, 0.029778, 0.015516, 0.966453, 24.839352, 2.040183, 55.316917, 0.028672, -0.054423, -0.051187

1495052628.041553, 0.014661, -0.015272, 0.002443, 0.059555, 0.000000, 0.950865, 24.851385, 2.049976, 55.305309, 0.028285, -0.054773, -0.052054

1495052628.055022, 0.021075, -0.013134, 0.004581, 0.059555, 0.000000, 0.950865, 24.799402, 1.976177, 55.296024, 0.027992, -0.055092, -0.052810

1495052628.068483, 0.018326, -0.012523, 0.004276, 0.044666, 0.015516, 0.966453, 24.757816, 1.917138, 55.288597, 0.027991, -0.055081, -0.052628

1495052628.081794, 0.018631, -0.010385, 0.004276, 0.044666, 0.015516, 0.966453, 24.724548, 1.869907, 55.282654, 0.027992, -0.055041, -0.052409

1495052628.095070, 0.015272, -0.013744, 0.001833, 0.044666, 0.015516, 0.935277, 24.759542, 1.974979, 55.277901, 0.027961, -0.055075, -0.052298

1495052628.108439, 0.016188, -0.016188, 0.004581, 0.059555, 0.000000, 0.966453, 24.787539, 2.059037, 55.274097, 0.027608, -0.055406, -0.053123

1495052628.121711, 0.020159, -0.015577, 0.003360, 0.059555, 0.000000, 0.966453, 24.809935, 2.085467, 55.247730, 0.027314, -0.055720, -0.053970

1495052628.135079, 0.015882, -0.014050, 0.003054, 0.029778, 0.015516, 0.966453, 24.827852, 2.106611, 55.226639, 0.027294, -0.055407, -0.053907

1495052628.148395, 0.018631, -0.009163, 0.002749, 0.059555, 0.031033, 0.966453, 24.842186, 2.123526, 55.209763, 0.027634, -0.055648, -0.053124

1495052628.162072, 0.019548, -0.012523, 0.000916, 0.059555, 0.031033, 0.966453, 24.812580, 2.096242, 55.196262, 0.027987, -0.055932, -0.052357

1495052628.175463, 0.020464, -0.011301, 0.004581, 0.044666, 0.015516, 0.966453, 24.788895, 2.074415, 55.185463, 0.028014, -0.055887, -0.052321

1495052628.188781, 0.018326, -0.014966, 0.002138, 0.044666, 0.015516, 0.966453, 24.769947, 2.056953, 55.176823, 0.028013, -0.055888, -0.052305

1495052628.202555, 0.021075, -0.017104, 0.003665, 0.014889, 0.015516, 0.935277, 24.754789, 2.042984, 55.169910, 0.028064, -0.055322, -0.052155

1495052628.215900, 0.020159, -0.011301, 0.004581, 0.044666, 0.015516, 0.966453, 24.742662, 2.031808, 55.164383, 0.028084, -0.055288, -0.052088

1495052628.229414, 0.020769, -0.012828, 0.003971, 0.044666, 0.015516, 0.966453, 24.753498, 2.043276, 55.183281, 0.028116, -0.055277, -0.052040

1495052628.242826, 0.016493, -0.009468, 0.003054, 0.044666, 0.000000, 0.982041, 24.762165, 2.052450, 55.198402, 0.027772, -0.055195, -0.052801

1495052628.256164, 0.020159, -0.012828, 0.004887, 0.059555, 0.015516, 0.966453, 24.769100, 2.059789, 55.210499, 0.027798, -0.055491, -0.052786

1495052628.269449, 0.017715, -0.014966, 0.001833, 0.059555, 0.015516, 0.966453, 24.774647, 1.943212, 55.220177, 0.027793, -0.055808, -0.052702

1495052628.282767, 0.015882, -0.014966, 0.003971, 0.044666, 0.015516, 0.950865, 24.779085, 1.849949, 55.227917, 0.027768, -0.055829, -0.052456

1495052628.296044, 0.022297, -0.014661, 0.006109, 0.044666, 0.015516, 0.966453, 24.782635, 1.856972, 55.257435, 0.027818, -0.055829, -0.052205

1495052628.309445, 0.020464, -0.014050, 0.001833, 0.029778, 0.000000, 0.966453, 24.785475, 1.862591, 55.281048, 0.027536, -0.055506, -0.052746

1495052628.322711, 0.019853, -0.011606, 0.003360, 0.044666, 0.000000, 0.982041, 24.787746, 1.867085, 55.299938, 0.027245, -0.055449, -0.053323

1495052628.336374, 0.020159, -0.015882, 0.002443, 0.044666, 0.000000, 0.982041, 24.769028, 1.891089, 55.268402, 0.026971, -0.055454, -0.053925

1495052628.349803, 0.018937, -0.015882, 0.003665, 0.044666, 0.015516, 0.982041, 24.754053, 1.910293, 55.243176, 0.026994, -0.055465, -0.053735

1495052628.363097, 0.018021, -0.014050, 0.001222, 0.059555, 0.015516, 0.966453, 24.783146, 1.946063, 55.222992, 0.027009, -0.055770, -0.053642

1495052628.376997, 0.022907, -0.017104, 0.001833, 0.059555, 0.015516, 0.966453, 24.806421, 1.974680, 55.206848, 0.027102, -0.056119, -0.053570

1495052628.390344, 0.024129, -0.018631, 0.002749, 0.044666, 0.015516, 0.966453, 24.825041, 1.997573, 55.193932, 0.027195, -0.056165, -0.053466

1495052628.403787, 0.014050, -0.012523, 0.003360, 0.044666, 0.046549, 0.982041, 24.798864, 2.056704, 55.206921, 0.027772, -0.056101, -0.051856

1495052628.417094, 0.016493, -0.011606, 0.004276, 0.044666, 0.046549, 0.982041, 24.777922, 2.104009, 55.217312, 0.028368, -0.056026, -0.050308

1495052628.430409, 0.016799, -0.014355, 0.001833, 0.059555, 0.046549, 0.982041, 24.802240, 2.101037, 55.225624, 0.028969, -0.056289, -0.048801

1495052628.443718, 0.013744, -0.015882, 0.003360, 0.059555, 0.046549, 0.982041, 24.821695, 2.098659, 55.232277, 0.029517, -0.056569, -0.047303

1495052628.457088, 0.024435, -0.013134, 0.006720, 0.044666, 0.015516, 0.966453, 24.837259, 2.096756, 55.237598, 0.029564, -0.056535, -0.047358

1495052628.470358, 0.022602, -0.011912, 0.005498, 0.059555, 0.015516, 0.966453, 24.849710, 2.095234, 55.265179, 0.029584, -0.056791, -0.047472

1495052628.483898, 0.022297, -0.017410, 0.003665, 0.059555, 0.015516, 0.966453, 24.859673, 2.094017, 55.287243, 0.029606, -0.057117, -0.047607

1495052628.497239, 0.018326, -0.014050, 0.000611, 0.059555, 0.015516, 0.950865, 24.867641, 2.093043, 55.328220, 0.029580, -0.057408, -0.047766

1495052628.510790, 0.020464, -0.016493, 0.002138, 0.059555, 0.031033, 0.950865, 24.874018, 2.092264, 55.361000, 0.029913, -0.057729, -0.047056

1495052628.524549, 0.022907, -0.015577, 0.005498, 0.059555, 0.031033, 0.950865, 24.879118, 2.091640, 55.387226, 0.030273, -0.058036, -0.046312

1495052628.537818, 0.021075, -0.012523, 0.003971, 0.059555, 0.000000, 0.966453, 24.924271, 2.091141, 55.384880, 0.029938, -0.058255, -0.047282

1495052628.551499, 0.019242, -0.015882, 0.001222, 0.059555, 0.000000, 0.966453, 24.960394, 2.090743, 55.383003, 0.029595, -0.058520, -0.048265

1495052628.564860, 0.019548, -0.014966, 0.003971, 0.029778, 0.015516, 0.950865, 24.948219, 2.090423, 55.358177, 0.029583, -0.058173, -0.048272

1495052628.578177, 0.017410, -0.012217, 0.004887, 0.044666, 0.000000, 0.950865, 24.938478, 2.090168, 55.338318, 0.029221, -0.058096, -0.049112

1495052628.591451, 0.016799, -0.015882, 0.001222, 0.044666, 0.000000, 0.950865, 24.930687, 2.089964, 55.322430, 0.028859, -0.058067, -0.049986

1495052628.604768, 0.021380, -0.013744, 0.002138, 0.029778, -0.030966, 0.966453, 24.944990, 2.089800, 55.309719, 0.027950, -0.057634, -0.052240

1495052628.618079, 0.021075, -0.016799, 0.002138, 0.059555, 0.015516, 0.982041, 24.956432, 2.089670, 55.299553, 0.027981, -0.057912, -0.052301

1495052628.631436, 0.022602, -0.017104, 0.003971, 0.059555, 0.015516, 0.982041, 24.903976, 2.109973, 55.314743, 0.028030, -0.058189, -0.052357

1495052628.644714, 0.018326, -0.018937, 0.003360, 0.059555, 0.031033, 0.966453, 24.862013, 2.126216, 55.326897, 0.028349, -0.058502, -0.051600

1495052628.658351, 0.015272, -0.015577, 0.002443, 0.059555, 0.031033, 0.966453, 24.828442, 2.139210, 55.336617, 0.028627, -0.058770, -0.050880

1495052628.671766, 0.018021, -0.014050, 0.003360, 0.029778, 0.000000, 0.982041, 24.801584, 2.149606, 55.391041, 0.028301, -0.058375, -0.051670

1495052628.685046, 0.025045, -0.014355, 0.003971, 0.059555, 0.015516, 0.966453, 24.780098, 2.157922, 55.434582, 0.028379, -0.058626, -0.051779

1495052628.699120, 0.024435, -0.014355, 0.004887, 0.059555, 0.015516, 0.966453, 24.824518, 2.123759, 55.422768, 0.028466, -0.058883, -0.051835

1495052628.712435, 0.022602, -0.014050, 0.003360, 0.044666, 0.000000, 0.982041, 24.860054, 2.096428, 55.413315, 0.028195, -0.058787, -0.052629

1495052628.725908, 0.016493, -0.013744, 0.004276, 0.044666, 0.015516, 0.982041, 24.888483, 2.074564, 55.405754, 0.028162, -0.058703, -0.052596

1495052628.739321, 0.017715, -0.013439, 0.003360, 0.044666, 0.015516, 0.982041, 24.890690, 2.118296, 55.376381, 0.028146, -0.058616, -0.052614

1495052628.752635, 0.022297, -0.015882, 0.004276, 0.029778, 0.000000, 0.982041, 24.892456, 2.153283, 55.352882, 0.027882, -0.058247, -0.053355

1495052628.765993, 0.017410, -0.010996, 0.003360, 0.029778, 0.000000, 0.982041, 24.873333, 2.079231, 55.310760, 0.027559, -0.057824, -0.054030

1495052628.779331, 0.019242, -0.011301, 0.006109, 0.014889, 0.000000, 0.950865, 24.858034, 2.019989, 55.277061, 0.027267, -0.057122, -0.054542

1495052628.792584, 0.023213, -0.014050, 0.004276, 0.044666, 0.015516, 0.966453, 24.845795, 1.972596, 55.250103, 0.027341, -0.057088, -0.054374

1495052628.806033, 0.014050, -0.014355, 0.001833, 0.044666, 0.015516, 0.966453, 24.856539, 1.995906, 55.321831, 0.027299, -0.057060, -0.054260

1495052628.820043, 0.017410, -0.015577, 0.003360, 0.044666, 0.015516, 0.982041, 24.865135, 2.014555, 55.379211, 0.027305, -0.057044, -0.054153

1495052628.833564, 0.018326, -0.015882, 0.005803, 0.074444, -0.015483, 0.982041, 24.851475, 2.009065, 55.425117, 0.026668, -0.057592, -0.055787

1495052628.847353, 0.021686, -0.014966, 0.006109, 0.074444, -0.015483, 0.982041, 24.840548, 2.004673, 55.461842, 0.026094, -0.058123, -0.057380

1495052628.861144, 0.022907, -0.015882, 0.004276, 0.029778, 0.031033, 0.966453, 24.831806, 2.001159, 55.491222, 0.026508, -0.057789, -0.056370

1495052628.874558, 0.019853, -0.014050, 0.003971, 0.044666, 0.015516, 0.982041, 24.804276, 2.018757, 55.398106, 0.026552, -0.057729, -0.056220

1495052628.888243, 0.021686, -0.016188, -0.000000, 0.044666, 0.015516, 0.982041, 24.782251, 2.032835, 55.323612, 0.026627, -0.057701, -0.056141

1495052628.901569, 0.018631, -0.014966, -0.000000, 0.044666, 0.031033, 0.966453, 24.826241, 2.003280, 55.333992, 0.026975, -0.057663, -0.055228

1495052628.915040, 0.022602, -0.016493, 0.001833, 0.044666, 0.031033, 0.966453, 24.861433, 1.979637, 55.342293, 0.027369, -0.057650, -0.054287

1495052628.928721, 0.022907, -0.014661, 0.002443, 0.074444, 0.015516, 0.919689, 24.889587, 1.960723, 55.348934, 0.027466, -0.058309, -0.054185

1495052628.941986, 0.021991, -0.015577, 0.003971, 0.059555, 0.000000, 0.966453, 24.809427, 2.027224, 55.377571, 0.027199, -0.058567, -0.054949

1495052628.955668, 0.022297, -0.017715, 0.003054, 0.059555, 0.000000, 0.966453, 24.745300, 2.080425, 55.400482, 0.026951, -0.058854, -0.055764

1495052628.969051, 0.021075, -0.015272, 0.002749, 0.029778, 0.015516, 0.966453, 24.755608, 2.061761, 55.348839, 0.027006, -0.058494, -0.055632

1495052628.982356, 0.025962, -0.015577, 0.004581, 0.029778, 0.015516, 0.950865, 24.763853, 2.046830, 55.307526, 0.027126, -0.058156, -0.055456

1495052628.995660, 0.024740, -0.014661, 0.006109, 0.029778, 0.015516, 0.950865, 24.770451, 2.034885, 55.274475, 0.027226, -0.057813, -0.055252

1495052629.008949, 0.023213, -0.013744, 0.002749, 0.029778, 0.000000, 0.966453, 24.837337, 2.025329, 55.248032, 0.026990, -0.057444, -0.055856

1495052629.022221, 0.021686, -0.017410, 0.002749, 0.029778, 0.000000, 0.966453, 24.890846, 2.017684, 55.226879, 0.026739, -0.057130, -0.056439

1495052629.035631, 0.017715, -0.017715, 0.004581, 0.029778, 0.000000, 0.966453, 24.872044, 2.031977, 55.233280, 0.026441, -0.056830, -0.057000

1495052629.048940, 0.019548, -0.014050, 0.001527, 0.044666, 0.031033, 0.982041, 24.857002, 2.043411, 55.238400, 0.026794, -0.056783, -0.056112

1495052629.062608, 0.021380, -0.014355, -0.000000, 0.044666, 0.031033, 0.982041, 24.844969, 2.052558, 55.242496, 0.027171, -0.056747, -0.055270

1495052629.076026, 0.018021, -0.014050, 0.006414, 0.059555, 0.015516, 1.013217, 24.876415, 2.019059, 55.269096, 0.027167, -0.056973, -0.055171

1495052629.089335, 0.017715, -0.015577, 0.001222, 0.044666, 0.015516, 0.950865, 24.901573, 1.992260, 55.290379, 0.027180, -0.056977, -0.055034

1495052629.103114, 0.015577, -0.015272, 0.002443, 0.044666, 0.015516, 0.950865, 24.839554, 1.970821, 55.330727, 0.027171, -0.056984, -0.054865

1495052629.116462, 0.027184, -0.015272, 0.003360, 0.044666, 0.015516, 0.982041, 24.789938, 1.953670, 55.363007, 0.027296, -0.056954, -0.054697

1495052629.129856, 0.018021, -0.013439, 0.002443, 0.044666, 0.015516, 0.982041, 24.750244, 1.939948, 55.388828, 0.027300, -0.056902, -0.054532

1495052629.143162, 0.016799, -0.015272, 0.003054, 0.059555, 0.015516, 0.950865, 24.800636, 1.990196, 55.386162, 0.027298, -0.057216, -0.054428

1495052629.156517, 0.024435, -0.011606, 0.004581, 0.044666, 0.015516, 0.966453, 24.840950, 2.030394, 55.384029, 0.027389, -0.057149, -0.054306

1495052629.169838, 0.022907, -0.018937, 0.004581, 0.044666, 0.015516, 0.966453, 24.873199, 2.021737, 55.359001, 0.027458, -0.057179, -0.054181

1495052629.183173, 0.024435, -0.016188, 0.006720, 0.044666, 0.015516, 0.966453, 24.899000, 2.014810, 55.338978, 0.027544, -0.057173, -0.054023

1495052629.196471, 0.024435, -0.017410, 0.007636, 0.059555, 0.015516, 0.966453, 24.919640, 2.009269, 55.322960, 0.027628, -0.057490, -0.053893

1495052629.210072, 0.022297, -0.014966, 0.003665, 0.059555, 0.015516, 0.966453, 24.915615, 2.025245, 55.380116, 0.027691, -0.057772, -0.053830

1495052629.223387, 0.015272, -0.014355, -0.000305, 0.044666, 0.031033, 0.966453, 24.912395, 2.038025, 55.425838, 0.027975, -0.057725, -0.052994

1495052629.236843, 0.018937, -0.015577, 0.001222, 0.044666, 0.031033, 0.966453, 24.889284, 2.027841, 55.415771, 0.028301, -0.057698, -0.052147

1495052629.250574, 0.018021, -0.020769, 0.003665, 0.029778, 0.000000, 0.966453, 24.870794, 2.019694, 55.407719, 0.027984, -0.057431, -0.052795

1495052629.263854, 0.023213, -0.017104, 0.005498, 0.044666, 0.015516, 0.966453, 24.856003, 2.013176, 55.401276, 0.028044, -0.057431, -0.052681

1495052629.277448, 0.021991, -0.013744, 0.001527, 0.044666, 0.015516, 0.966453, 24.864706, 2.069187, 55.372795, 0.028096, -0.057389, -0.052669

1495052629.290839, 0.022297, -0.012217, 0.004276, 0.029778, 0.031033, 0.966453, 24.871668, 2.113995, 55.350014, 0.028456, -0.057018, -0.051855

1495052629.304135, 0.016799, -0.011301, 0.000611, 0.059555, 0.000000, 0.966453, 24.877237, 2.068209, 55.401760, 0.028103, -0.057243, -0.052740

1495052629.317453, 0.018326, -0.014966, 0.004581, 0.059555, 0.000000, 0.966453, 24.881693, 2.031580, 55.443157, 0.027776, -0.057514, -0.053522

1495052629.330776, 0.019548, -0.017715, 0.005192, 0.059555, 0.015516, 0.982041, 24.885258, 2.002277, 55.476273, 0.027788, -0.057809, -0.053438

1495052629.344051, 0.018631, -0.015272, 0.005192, 0.059555, 0.031033, 0.982041, 24.929182, 2.040059, 55.409470, 0.028104, -0.058062, -0.052576

1495052629.357438, 0.020464, -0.015577, 0.005803, 0.059555, 0.031033, 0.982041, 24.964323, 2.070284, 55.356030, 0.028439, -0.058317, -0.051751

1495052629.370715, 0.018937, -0.012217, 0.002443, 0.029778, 0.000000, 0.950865, 24.910290, 2.033240, 55.313278, 0.028124, -0.057927, -0.052433

1495052629.384468, 0.024740, -0.018631, 0.005803, 0.029778, 0.000000, 0.950865, 24.867064, 2.003605, 55.279076, 0.027900, -0.057638, -0.053034

1495052629.397905, 0.021380, -0.015577, 0.003971, 0.044666, 0.046549, 0.966453, 24.832481, 1.979897, 55.251713, 0.028573, -0.057598, -0.051317

1495052629.411227, 0.020159, -0.009774, 0.001222, 0.044666, 0.015516, 0.966453, 24.804815, 2.001747, 55.253147, 0.028585, -0.057498, -0.051279

1495052629.425024, 0.021991, -0.011301, 0.002443, 0.044666, 0.015516, 0.966453, 24.782682, 2.019227, 55.254295, 0.028631, -0.057426, -0.051242

1495052629.438423, 0.017104, -0.014966, 0.000611, 0.044666, 0.031033, 0.982041, 24.806049, 1.992394, 55.255211, 0.028909, -0.057382, -0.050436

1495052629.451983, 0.019242, -0.010079, 0.002749, 0.044666, 0.000000, 0.966453, 24.824743, 1.970928, 55.255943, 0.028589, -0.057282, -0.051159

1495052629.465378, 0.026573, -0.017410, 0.003054, 0.044666, 0.000000, 0.966453, 24.839699, 1.953755, 55.256531, 0.028368, -0.057279, -0.051850

1495052629.478703, 0.017715, -0.019242, 0.003360, 0.029778, 0.015516, 0.950865, 24.872200, 1.980834, 55.257000, 0.028355, -0.057013, -0.051705

1495052629.491997, 0.017715, -0.018937, 0.003360, 0.029778, 0.015516, 0.950865, 24.898201, 2.002496, 55.257378, 0.028342, -0.056747, -0.051581

1495052629.505365, 0.015882, -0.011912, 0.001833, 0.044666, 0.015516, 0.982041, 24.939537, 2.019826, 55.234356, 0.028298, -0.056678, -0.051552

1495052629.518648, 0.022602, -0.014966, 0.005192, 0.029778, 0.015516, 0.966453, 24.972607, 2.033690, 55.215939, 0.028343, -0.056357, -0.051441

1495052629.532078, 0.019853, -0.014661, 0.005498, 0.029778, 0.015516, 0.966453, 24.999062, 2.044782, 55.201202, 0.028354, -0.056042, -0.051336

1495052629.545365, 0.015577, -0.013439, 0.004276, 0.029778, 0.015516, 0.966453, 24.979153, 2.012838, 55.236061, 0.028307, -0.055713, -0.051222

1495052629.559002, 0.017410, -0.013134, 0.003054, 0.059555, 0.015516, 0.950865, 24.963226, 1.987283, 55.263950, 0.028299, -0.056027, -0.051173

1495052629.572423, 0.014355, -0.014966, 0.003971, 0.059555, 0.015516, 0.950865, 24.950485, 1.946432, 55.286263, 0.028245, -0.056355, -0.051077

1495052629.585750, 0.014355, -0.011606, 0.001527, 0.029778, 0.015516, 0.966453, 24.899220, 1.913750, 55.304111, 0.028186, -0.055997, -0.050921

1495052629.599557, 0.021075, -0.011301, 0.000916, 0.029778, 0.015516, 0.966453, 24.858206, 1.887605, 55.318390, 0.028226, -0.055647, -0.050754

1495052629.612887, 0.015577, -0.014966, 0.001527, 0.044666, 0.000000, 0.982041, 24.845932, 1.927913, 55.306488, 0.027868, -0.055630, -0.051446

1495052629.626413, 0.020769, -0.012217, 0.003665, 0.044666, 0.015516, 0.950865, 24.836113, 1.960160, 55.296967, 0.027910, -0.055620, -0.051324

1495052629.639777, 0.018937, -0.014661, 0.001222, 0.044666, 0.015516, 0.950865, 24.828259, 1.985957, 55.289349, 0.027925, -0.055639, -0.051261

1495052629.653087, 0.021686, -0.014966, 0.005192, 0.029778, 0.031033, 0.982041, 24.821974, 2.006595, 55.283257, 0.028268, -0.055328, -0.050398

1495052629.666377, 0.022602, -0.016493, 0.004581, 0.029778, 0.015516, 0.982041, 24.816946, 2.023105, 55.278381, 0.028309, -0.055044, -0.050327

1495052629.679681, 0.018326, -0.013134, 0.000916, 0.029778, 0.015516, 0.982041, 24.833460, 2.077130, 55.251160, 0.028298, -0.054721, -0.050349

1495052629.692952, 0.014966, -0.015882, 0.003054, 0.029778, 0.031033, 0.966453, 24.846672, 2.120349, 55.229382, 0.028559, -0.054448, -0.049609

1495052629.706540, 0.020464, -0.015577, 0.002443, 0.029778, 0.031033, 0.966453, 24.857241, 2.154925, 55.211960, 0.028893, -0.054182, -0.048920

1495052629.719830, 0.018937, -0.014355, 0.002749, 0.059555, 0.031033, 1.013217, 24.865696, 2.141769, 55.244667, 0.029173, -0.054460, -0.048328

1495052629.733429, 0.016188, -0.016188, 0.003054, 0.029778, 0.031033, 0.966453, 24.872461, 2.131245, 55.270836, 0.029438, -0.054202, -0.047635

1495052629.747036, 0.022602, -0.019242, 0.004887, 0.029778, 0.031033, 0.966453, 24.918945, 2.122825, 55.268444, 0.029782, -0.053992, -0.046925

1495052629.760298, 0.025045, -0.015882, 0.004887, 0.059555, 0.000000, 0.982041, 24.956133, 2.116089, 55.266533, 0.029506, -0.054316, -0.047887

1495052629.773998, 0.020769, -0.016799, 0.003054, 0.059555, 0.015516, 0.966453, 24.985884, 2.110701, 55.265003, 0.029513, -0.054686, -0.048030

1495052629.787370, 0.021686, -0.016799, 0.005192, 0.059555, 0.015516, 0.966453, 24.968611, 2.188023, 55.310429, 0.029524, -0.055044, -0.048216

1495052629.800629, 0.019548, -0.015272, 0.003054, 0.044666, 0.015516, 0.966453, 24.954792, 2.249880, 55.346767, 0.029508, -0.055064, -0.048432

1495052629.813916, 0.019853, -0.009774, 0.003665, 0.044666, 0.015516, 0.966453, 24.923201, 2.217733, 55.375839, 0.029496, -0.055014, -0.048606

1495052629.827252, 0.022297, -0.012523, 0.000611, 0.059555, 0.046549, 0.935277, 24.897928, 2.192016, 55.399097, 0.030197, -0.055333, -0.047100

1495052629.840541, 0.018326, -0.014050, 0.002443, 0.029778, 0.031033, 0.982041, 24.877710, 2.171442, 55.417702, 0.030455, -0.055016, -0.046494

1495052629.853843, 0.020464, -0.016799, 0.003971, 0.029778, 0.031033, 0.982041, 24.861536, 2.134575, 55.409264, 0.030735, -0.054742, -0.045850

1495052629.867134, 0.021380, -0.013439, 0.006109, 0.029778, 0.031033, 0.982041, 24.848597, 2.105081, 55.402512, 0.031019, -0.054430, -0.045164

1495052629.880788, 0.018937, -0.013744, 0.005803, 0.044666, 0.046549, 0.966453, 24.879318, 2.101894, 55.327137, 0.031605, -0.054439, -0.043686

1495052629.894205, 0.016188, -0.014355, 0.004276, 0.044666, 0.046549, 0.966453, 24.903894, 2.099345, 55.266838, 0.032140, -0.054452, -0.042260

1495052629.907570, 0.015882, -0.017104, 0.004276, 0.059555, 0.000000, 0.982041, 24.923555, 2.097305, 55.218597, 0.031699, -0.054783, -0.043309

1495052629.921323, 0.021991, -0.008247, 0.003054, 0.059555, 0.000000, 0.966453, 24.857140, 2.095673, 55.273304, 0.031356, -0.055013, -0.044358

1495052629.934667, 0.016799, -0.015882, 0.001833, 0.044666, 0.000000, 0.966453, 24.804007, 2.094368, 55.317066, 0.030952, -0.055030, -0.045330

1495052629.948216, 0.015272, -0.014661, 0.004276, 0.044666, 0.015516, 0.982041, 24.843645, 2.072916, 55.422050, 0.030850, -0.055033, -0.045444

1495052629.961624, 0.023824, -0.013744, 0.004581, 0.044666, 0.015516, 0.982041, 24.875357, 2.055753, 55.506035, 0.030860, -0.055023, -0.045534

1495052629.974939, 0.019548, -0.015882, 0.002443, 0.044666, 0.031033, 0.966453, 24.900726, 2.042024, 55.573223, 0.031135, -0.055053, -0.044829

1495052629.988244, 0.019242, -0.014661, 0.003054, 0.029778, 0.015516, 0.966453, 24.900484, 2.051448, 55.580326, 0.031084, -0.054760, -0.044894

1495052630.001581, 0.015882, -0.013439, 0.001222, 0.029778, 0.015516, 0.966453, 24.900291, 2.058988, 55.586010, 0.030991, -0.054456, -0.044988

1495052630.014863, 0.014050, -0.015272, 0.000611, 0.059555, 0.046549, 0.966453, 24.879601, 2.105836, 55.567234, 0.031521, -0.054783, -0.043553

1495052630.028200, 0.017410, -0.012523, 0.002138, 0.059555, 0.046549, 0.982041, 24.863049, 2.143315, 55.552212, 0.032068, -0.055052, -0.042203

1495052630.041476, 0.018631, -0.010996, 0.004276, 0.029778, 0.031033, 0.982041, 24.849806, 2.173297, 55.540195, 0.032292, -0.054702, -0.041668

1495052630.055107, 0.015882, -0.013744, 0.001833, 0.044666, 0.015516, 0.950865, 24.818676, 2.197284, 55.530582, 0.032185, -0.054728, -0.041977

1495052630.068560, 0.017410, -0.012523, 0.004276, 0.044666, 0.015516, 0.950865, 24.793772, 2.216472, 55.522892, 0.032096, -0.054737, -0.042267

1495052630.081888, 0.018326, -0.015882, 0.003971, 0.044666, 0.015516, 0.966453, 24.835457, 2.170599, 55.493416, 0.032013, -0.054772, -0.042524

1495052630.095662, 0.021686, -0.013134, 0.003971, 0.044666, 0.031033, 0.950865, 24.868805, 2.133900, 55.469833, 0.032313, -0.054794, -0.041916

1495052630.109009, 0.022907, -0.012828, 0.004581, 0.044666, 0.031033, 0.950865, 24.895485, 2.104541, 55.450966, 0.032614, -0.054806, -0.041288

1495052630.122461, 0.026878, -0.013439, 0.003360, 0.059555, 0.000000, 0.966453, 24.855219, 2.101462, 55.389225, 0.032311, -0.055101, -0.042383

1495052630.135876, 0.024740, -0.017410, 0.003054, 0.074444, 0.015516, 0.919689, 24.823006, 2.098999, 55.339832, 0.032322, -0.055842, -0.042654

1495052630.149201, 0.020464, -0.015882, 0.002443, 0.074444, 0.015516, 0.919689, 24.797235, 2.117437, 55.323643, 0.032275, -0.056546, -0.042948

1495052630.162479, 0.016493, -0.013134, 0.003054, 0.059555, 0.015516, 0.966453, 24.776619, 2.132187, 55.310692, 0.032163, -0.056815, -0.043220

1495052630.175813, 0.018326, -0.011912, 0.004276, 0.059555, 0.015516, 0.966453, 24.760126, 2.143987, 55.300331, 0.032076, -0.057065, -0.043483

1495052630.189100, 0.020464, -0.015577, 0.001527, 0.044666, 0.031033, 0.982041, 24.788004, 2.133019, 55.315365, 0.032329, -0.057035, -0.042946

1495052630.202481, 0.019853, -0.015577, 0.000611, 0.044666, 0.031033, 0.966453, 24.810307, 2.124244, 55.327393, 0.032582, -0.057023, -0.042398

1495052630.215771, 0.024129, -0.016493, 0.005192, 0.044666, 0.031033, 0.966453, 24.787077, 2.158041, 55.267044, 0.032880, -0.057022, -0.041834

1495052630.229430, 0.015272, -0.014661, 0.003054, 0.029778, 0.015516, 0.966453, 24.768492, 2.185079, 55.218765, 0.032750, -0.056693, -0.042084

1495052630.242828, 0.018937, -0.011912, 0.003054, 0.029778, 0.015516, 0.966453, 24.753624, 2.206708, 55.180141, 0.032666, -0.056330, -0.042348

1495052630.256175, 0.016799, -0.012523, 0.004887, 0.029778, 0.015516, 0.966453, 24.782803, 2.183196, 55.195889, 0.032554, -0.055983, -0.042561

1495052630.269917, 0.018631, -0.013134, 0.004581, 0.029778, 0.015516, 0.966453, 24.806147, 2.164386, 55.208488, 0.032475, -0.055656, -0.042756

1495052630.283235, 0.019242, -0.011606, 0.004581, 0.029778, 0.015516, 0.966453, 24.845358, 2.190155, 55.195244, 0.032397, -0.055310, -0.042968

1495052630.296726, 0.018937, -0.015272, 0.002443, 0.059555, 0.031033, 0.950865, 24.876726, 2.210769, 55.184647, 0.032653, -0.055657, -0.042466

1495052630.310150, 0.020159, -0.012217, 0.001527, 0.059555, 0.046549, 0.982041, 24.901821, 2.227261, 55.176170, 0.033214, -0.055907, -0.041241

1495052630.323488, 0.015577, -0.013134, 0.001833, 0.059555, 0.046549, 0.982041, 24.901361, 2.220046, 55.216038, 0.033702, -0.056163, -0.040029

1495052630.336788, 0.018937, -0.011912, 0.006109, 0.044666, 0.000000, 0.982041, 24.900993, 2.214274, 55.247932, 0.033277, -0.056087, -0.041124

1495052630.350097, 0.023518, -0.015272, 0.005498, 0.059555, 0.015516, 0.982041, 24.880161, 2.189249, 55.296772, 0.033230, -0.056375, -0.041460

1495052630.363403, 0.017715, -0.016188, 0.003665, 0.059555, 0.015516, 0.982041, 24.863497, 2.169228, 55.335842, 0.033109, -0.056668, -0.041795

1495052630.376819, 0.021075, -0.015272, 0.004276, 0.044666, 0.015516, 0.966453, 24.850164, 2.153212, 55.367100, 0.033044, -0.056658, -0.042042

1495052630.390163, 0.024129, -0.015882, 0.004581, 0.044666, 0.015516, 0.966453, 24.880571, 2.140399, 55.345455, 0.033018, -0.056656, -0.042268

1495052630.403774, 0.016188, -0.015272, 0.001527, 0.044666, 0.015516, 0.982041, 24.904898, 2.130148, 55.328140, 0.032890, -0.056633, -0.042529

1495052630.417145, 0.014966, -0.017715, -0.000916, 0.044666, 0.015516, 0.966453, 24.883286, 2.101540, 55.314289, 0.032752, -0.056654, -0.042783

1495052630.430453, 0.017104, -0.012828, 0.002138, 0.044666, 0.015516, 0.966453, 24.865995, 2.078653, 55.303207, 0.032641, -0.056611, -0.042971

1495052630.444243, 0.021380, -0.013439, 0.005192, 0.059555, 0.031033, 0.982041, 24.852163, 2.060343, 55.294342, 0.032906, -0.056874, -0.042339

1495052630.457582, 0.018021, -0.011606, 0.003665, 0.044666, 0.031033, 0.966453, 24.841099, 2.106920, 55.310574, 0.033120, -0.056813, -0.041746

1495052630.471071, 0.017104, -0.015272, 0.004276, 0.044666, 0.031033, 0.966453, 24.832247, 2.144182, 55.323559, 0.033320, -0.056804, -0.041192

1495052630.484485, 0.018021, -0.013134, 0.003665, 0.059555, 0.031033, 0.966453, 24.825165, 2.092358, 55.333946, 0.033532, -0.057072, -0.040621

1495052630.497867, 0.024129, -0.014661, 0.000611, 0.059555, 0.031033, 0.966453, 24.819500, 2.050899, 55.342258, 0.033820, -0.057354, -0.040063

1495052630.511144, 0.020769, -0.016493, 0.001833, 0.029778, 0.031033, 0.935277, 24.814968, 2.017732, 55.348907, 0.034068, -0.057059, -0.039402

1495052630.524460, 0.024435, -0.014661, 0.005192, 0.044666, 0.015516, 0.950865, 24.790806, 2.072831, 55.307579, 0.034030, -0.057048, -0.039606

1495052630.537759, 0.020769, -0.016493, 0.005192, 0.044666, 0.015516, 0.950865, 24.771475, 2.116911, 55.274517, 0.033945, -0.057060, -0.039847

1495052630.551137, 0.017104, -0.018021, 0.004581, 0.059555, 0.031033, 0.950865, 24.838156, 2.131766, 55.318039, 0.034141, -0.057408, -0.039304

1495052630.564419, 0.022907, -0.018937, 0.006720, 0.059555, 0.015516, 0.982041, 24.891500, 2.143650, 55.352856, 0.034067, -0.057716, -0.039619

1495052630.578103, 0.024129, -0.021686, 0.004581, 0.059555, 0.015516, 0.982041, 24.934177, 2.153157, 55.380711, 0.034022, -0.058062, -0.039961

1495052630.591504, 0.022602, -0.013134, 0.005803, 0.059555, -0.030966, 0.950865, 24.968319, 2.160763, 55.333023, 0.032979, -0.058233, -0.042741

1495052630.604870, 0.021991, -0.015272, 0.007330, 0.059555, -0.030966, 0.950865, 24.995632, 2.166848, 55.294872, 0.031948, -0.058432, -0.045447

1495052630.618635, 0.022297, -0.015882, 0.006109, 0.044666, 0.031033, 0.982041, 24.976410, 2.151308, 55.287674, 0.032234, -0.058389, -0.044822

1495052630.631962, 0.019548, -0.013744, 0.001222, 0.044666, 0.031033, 0.966453, 24.961031, 2.138875, 55.281914, 0.032482, -0.058324, -0.044240

1495052630.645439, 0.018631, -0.013439, 0.002749, 0.044666, 0.031033, 0.966453, 24.948729, 2.128930, 55.277306, 0.032715, -0.058260, -0.043641

1495052630.658873, 0.020464, -0.014050, 0.005498, 0.044666, 0.015516, 0.966453, 24.938887, 2.120973, 55.296944, 0.032649, -0.058203, -0.043802

1495052630.674066, 0.018937, -0.014966, 0.003054, 0.044666, 0.046549, 0.982041, 24.931013, 2.114608, 55.312656, 0.033214, -0.058162, -0.042436

1495052630.687331, 0.020159, -0.013439, 0.003665, 0.044666, 0.046549, 0.982041, 24.965788, 2.068699, 55.325226, 0.033749, -0.058074, -0.041054

1495052630.700638, 0.015272, -0.016799, 0.003054, 0.044666, 0.000000, 0.950865, 24.993607, 2.031972, 55.335281, 0.033276, -0.058056, -0.042009

1495052630.713930, 0.017410, -0.014050, 0.004276, 0.029778, 0.031033, 0.950865, 25.015862, 2.002591, 55.343327, 0.033478, -0.057705, -0.041287

1495052630.727261, 0.017410, -0.011301, 0.004581, 0.029778, 0.031033, 0.950865, 24.992594, 1.999494, 55.396408, 0.033677, -0.057327, -0.040570

1495052630.740543, 0.019242, -0.012217, 0.005192, 0.029778, 0.015516, 0.966453, 24.973978, 1.997016, 55.438873, 0.033573, -0.056957, -0.040643

1495052630.754181, 0.015577, -0.015882, 0.000916, 0.029778, 0.015516, 0.966453, 24.938549, 1.933809, 55.449524, 0.033431, -0.056645, -0.040719

1495052630.767501, 0.017104, -0.013439, -0.000000, 0.044666, 0.015516, 0.982041, 24.910206, 1.883244, 55.458042, 0.033303, -0.056596, -0.040808

1495052630.781016, 0.021380, -0.014050, 0.003054, 0.044666, 0.015516, 0.966453, 24.887531, 1.842792, 55.464859, 0.033239, -0.056575, -0.040809

1495052630.794676, 0.022297, -0.012217, 0.004581, 0.044666, 0.015516, 0.966453, 24.848856, 1.912471, 55.446987, 0.033191, -0.056531, -0.040853

1495052630.807966, 0.020159, -0.014966, 0.003665, 0.044666, 0.015516, 0.982041, 24.817915, 1.968214, 55.432690, 0.033104, -0.056505, -0.040973

1495052630.821648, 0.021991, -0.016799, 0.005192, 0.059555, 0.031033, 0.982041, 24.813700, 1.971992, 55.421253, 0.033367, -0.056813, -0.040297

1495052630.835044, 0.021991, -0.011301, 0.006720, 0.059555, 0.031033, 0.982041, 24.810328, 1.975015, 55.412102, 0.033616, -0.057040, -0.039618

1495052630.848388, 0.025045, -0.016188, 0.003054, 0.044666, 0.031033, 0.950865, 24.807629, 1.977433, 55.404781, 0.033919, -0.057051, -0.038945

1495052630.861685, 0.017104, -0.013134, 0.002138, 0.044666, 0.031033, 0.950865, 24.764397, 1.999776, 55.422249, 0.034111, -0.057020, -0.038316

1495052630.874984, 0.020464, -0.016188, 0.004276, 0.059555, 0.015516, 0.966453, 24.729813, 2.017650, 55.436222, 0.034014, -0.057321, -0.038561

1495052630.888293, 0.017715, -0.016188, 0.002749, 0.044666, 0.015516, 0.966453, 24.702145, 1.929908, 55.447403, 0.033885, -0.057309, -0.038698

1495052630.901610, 0.022297, -0.014661, 0.003665, 0.044666, 0.015516, 0.966453, 24.803228, 1.859715, 55.363052, 0.033818, -0.057278, -0.038754

1495052630.914882, 0.021380, -0.013744, 0.005498, 0.044666, 0.015516, 0.966453, 24.884096, 1.803561, 55.295570, 0.033737, -0.057237, -0.038732

1495052630.928564, 0.021075, -0.013744, 0.007330, 0.059555, 0.031033, 0.966453, 24.887180, 1.860678, 55.288231, 0.033983, -0.057511, -0.037945

1495052630.941994, 0.021075, -0.015272, 0.002749, 0.059555, 0.031033, 0.966453, 24.889648, 1.906372, 55.282360, 0.034222, -0.057793, -0.037279

1495052630.955477, 0.019853, -0.014050, 0.003665, 0.044666, 0.015516, 0.982041, 24.891623, 1.942927, 55.277664, 0.034115, -0.057732, -0.037445

1495052630.969150, 0.016493, -0.013134, 0.003665, 0.044666, 0.015516, 0.966453, 24.893202, 1.972171, 55.273907, 0.033973, -0.057676, -0.037623

1495052630.982420, 0.018937, -0.011606, -0.001222, 0.044666, 0.015516, 0.966453, 24.894464, 1.995566, 55.270901, 0.033863, -0.057594, -0.037882

1495052630.996330, 0.018631, -0.012217, -0.003665, 0.059555, 0.046549, 0.982041, 24.957085, 2.034690, 55.315144, 0.034392, -0.057809, -0.036636

1495052631.009686, 0.017715, -0.013439, -0.000000, 0.059555, 0.046549, 0.982041, 25.007181, 2.065989, 55.350540, 0.034885, -0.058031, -0.035394

1495052631.022984, 0.021686, -0.013744, 0.002443, 0.059555, 0.015516, 0.950865, 25.047258, 2.091029, 55.378857, 0.034794, -0.058297, -0.035762

1495052631.036289, 0.020769, -0.012217, 0.003054, 0.029778, 0.031033, 0.950865, 25.079319, 2.111060, 55.401508, 0.035014, -0.057919, -0.035271

1495052631.049604, 0.018937, -0.013744, 0.002138, 0.029778, 0.031033, 0.950865, 25.104969, 2.127086, 55.419632, 0.035206, -0.057567, -0.034816

1495052631.062877, 0.023518, -0.016188, 0.000916, 0.029778, 0.000000, 0.982041, 25.043343, 2.160314, 55.364159, 0.034823, -0.057213, -0.035951

1495052631.076216, 0.021686, -0.015882, 0.001222, 0.029778, 0.015516, 0.966453, 24.994041, 2.186897, 55.319778, 0.034735, -0.056889, -0.036333

1495052631.089494, 0.022907, -0.012828, 0.003665, 0.044666, 0.015516, 0.966453, 24.954601, 2.208163, 55.284275, 0.034660, -0.056839, -0.036741

1495052631.103137, 0.024435, -0.013134, 0.004887, 0.029778, 0.031033, 0.966453, 24.881975, 2.184360, 55.209225, 0.034927, -0.056496, -0.036301

1495052631.116552, 0.016799, -0.010385, 0.003360, 0.029778, 0.031033, 0.966453, 24.823875, 2.165317, 55.149185, 0.035084, -0.056121, -0.035876

1495052631.129876, 0.020769, -0.015577, -0.000000, 0.044666, 0.015516, 0.982041, 24.839005, 2.129675, 55.194450, 0.034972, -0.056106, -0.036290

1495052631.143617, 0.017104, -0.015882, -0.000000, 0.044666, 0.031033, 0.966453, 24.851107, 2.101161, 55.230659, 0.035143, -0.056122, -0.035865

1495052631.156930, 0.019853, -0.014661, 0.002138, 0.044666, 0.031033, 0.966453, 24.860788, 2.078350, 55.259628, 0.035338, -0.056115, -0.035399

1495052631.170398, 0.015882, -0.015882, 0.000916, 0.029778, 0.015516, 0.966453, 24.868534, 2.060101, 55.212830, 0.035165, -0.055816, -0.035694

1495052631.183825, 0.018021, -0.016188, 0.003360, 0.044666, 0.000000, 0.935277, 24.874731, 2.045502, 55.175392, 0.034702, -0.055849, -0.036777

1495052631.197163, 0.013744, -0.013744, 0.004887, 0.044666, 0.000000, 0.935277, 24.900225, 2.033823, 55.215416, 0.034188, -0.055850, -0.037805

1495052631.210432, 0.018631, -0.014355, 0.002443, 0.029778, 0.015516, 0.982041, 24.920620, 2.024479, 55.247433, 0.034064, -0.055525, -0.038010

1495052631.223753, 0.022907, -0.014355, 0.005498, 0.029778, 0.015516, 0.982041, 24.936935, 2.017004, 55.273048, 0.033997, -0.055208, -0.038162

1495052631.237053, 0.021686, -0.014355, 0.003360, 0.014889, 0.046549, 0.950865, 24.908916, 2.011025, 55.293541, 0.034550, -0.054596, -0.036788

1495052631.250401, 0.018631, -0.017715, 0.001833, 0.059555, 0.015516, 0.982041, 24.886501, 2.006241, 55.309933, 0.034417, -0.054945, -0.037090

1495052631.263678, 0.020159, -0.012828, 0.000611, 0.059555, 0.015516, 0.982041, 24.909641, 2.022822, 55.299721, 0.034306, -0.055221, -0.037414

1495052631.277333, 0.019242, -0.010690, 0.001833, 0.029778, 0.015516, 0.966453, 24.928154, 2.036087, 55.291553, 0.034200, -0.054875, -0.037630

1495052631.290731, 0.016799, -0.013134, 0.002138, 0.044666, 0.015516, 0.966453, 24.942963, 2.046699, 55.285019, 0.034058, -0.054871, -0.037889

1495052631.304088, 0.018326, -0.017715, -0.000000, 0.044666, 0.015516, 0.966453, 24.913738, 2.055188, 55.256470, 0.033939, -0.054927, -0.038183

1495052631.317830, 0.018631, -0.012523, 0.001222, 0.059555, 0.031033, 0.966453, 24.890358, 2.061980, 55.233627, 0.034155, -0.055228, -0.037677

1495052631.331157, 0.019548, -0.011606, 0.002443, 0.059555, 0.031033, 0.966453, 24.871655, 2.047005, 55.168705, 0.034369, -0.055507, -0.037155

1495052631.344631, 0.024129, -0.011606, 0.003971, 0.029778, 0.031033, 0.997629, 24.856691, 2.035025, 55.116768, 0.034613, -0.055149, -0.036639

1495052631.358078, 0.023213, -0.013439, 0.004887, 0.044666, 0.015516, 0.982041, 24.844721, 2.025441, 55.075218, 0.034541, -0.055132, -0.036881

1495052631.371373, 0.019548, -0.015577, 0.003360, 0.044666, 0.015516, 0.982041, 24.876217, 2.078999, 55.111950, 0.034421, -0.055139, -0.037185

1495052631.384669, 0.018631, -0.014050, 0.001833, 0.029778, 0.015516, 0.982041, 24.901413, 2.121845, 55.141335, 0.034294, -0.054823, -0.037495

1495052631.398019, 0.019548, -0.015882, 0.003665, 0.029778, 0.015516, 0.982041, 24.921570, 2.115305, 55.211491, 0.034181, -0.054539, -0.037769

1495052631.411288, 0.019548, -0.016188, 0.002749, 0.029778, 0.015516, 0.982041, 24.937696, 2.110073, 55.267616, 0.034070, -0.054264, -0.038043

1495052631.424603, 0.016799, -0.015272, -0.000611, 0.074444, 0.015516, 0.982041, 24.950598, 2.105888, 55.312519, 0.033920, -0.054886, -0.038490

1495052631.437901, 0.021075, -0.018021, 0.002443, 0.074444, 0.015516, 0.982041, 24.940382, 2.082131, 55.325115, 0.033827, -0.055534, -0.038866

1495052631.451545, 0.022297, -0.017104, 0.001833, 0.044666, 0.015516, 0.966453, 24.932209, 2.063126, 55.335194, 0.033770, -0.055574, -0.039120

1495052631.464960, 0.014661, -0.017104, 0.002749, 0.044666, 0.015516, 0.966453, 24.905134, 2.047922, 55.249958, 0.033608, -0.055609, -0.039346

1495052631.478303, 0.017410, -0.012828, 0.003971, 0.044666, 0.015516, 0.966453, 24.883474, 2.035758, 55.181770, 0.033483, -0.055588, -0.039541

1495052631.492207, 0.020159, -0.013439, 0.005192, 0.044666, 0.000000, 0.935277, 24.866146, 2.026028, 55.127220, 0.033089, -0.055599, -0.040503

1495052631.505531, 0.025962, -0.014966, 0.002138, 0.044666, 0.015516, 0.982041, 24.852283, 2.059060, 55.130230, 0.033082, -0.055590, -0.040733

1495052631.519108, 0.019853, -0.014661, 0.001833, 0.044666, 0.015516, 0.982041, 24.841194, 2.085485, 55.132637, 0.033001, -0.055581, -0.040986

1495052631.532480, 0.015882, -0.013439, 0.001527, 0.044666, 0.015516, 0.966453, 24.852859, 2.065809, 55.087914, 0.032870, -0.055567, -0.041210

1495052631.545839, 0.016493, -0.016188, 0.003971, 0.044666, 0.015516, 0.966453, 24.862192, 2.050068, 55.052135, 0.032749, -0.055591, -0.041384

1495052631.559131, 0.021075, -0.012828, 0.002749, 0.044666, 0.031033, 0.966453, 24.869658, 2.037476, 55.023514, 0.033006, -0.055571, -0.040768

1495052631.572447, 0.018021, -0.010690, 0.003054, 0.044666, 0.015516, 0.982041, 24.814020, 2.006994, 55.047264, 0.032896, -0.055508, -0.040936

1495052631.585744, 0.018937, -0.012217, 0.003971, 0.044666, 0.015516, 0.982041, 24.769510, 1.982608, 55.066265, 0.032799, -0.055466, -0.041068

1495052631.599058, 0.020159, -0.009468, 0.004581, 0.029778, 0.031033, 0.982041, 24.816048, 1.963099, 55.104790, 0.033027, -0.055088, -0.040382

1495052631.612338, 0.017715, -0.012217, 0.001833, 0.044666, 0.015516, 0.950865, 24.853279, 1.947492, 55.135609, 0.032923, -0.055084, -0.040496

1495052631.626031, 0.017104, -0.013744, 0.000916, 0.044666, 0.015516, 0.950865, 24.883064, 1.935006, 55.160263, 0.032820, -0.055105, -0.040607

1495052631.639390, 0.021686, -0.013439, 0.001222, -0.000000, 0.015516, 0.966453, 24.845282, 1.965834, 55.179985, 0.032769, -0.054179, -0.040644

1495052631.652732, 0.014966, -0.014050, 0.000916, -0.000000, 0.015516, 0.966453, 24.815056, 1.990497, 55.195763, 0.032632, -0.053279, -0.040706

1495052631.666530, 0.016799, -0.011912, 0.002749, 0.059555, 0.031033, 0.966453, 24.852486, 1.949002, 55.208385, 0.032849, -0.053606, -0.040025

1495052631.679821, 0.013744, -0.012828, 0.002443, 0.059555, 0.015516, 0.982041, 24.882429, 1.915807, 55.218483, 0.032686, -0.053911, -0.040169

1495052631.693264, 0.022297, -0.015882, 0.004581, 0.059555, 0.015516, 0.982041, 24.906384, 1.889250, 55.226562, 0.032638, -0.054254, -0.040257

1495052631.706719, 0.020159, -0.016493, 0.003054, 0.044666, 0.015516, 0.982041, 24.884474, 1.949638, 55.256351, 0.032566, -0.054295, -0.040380

1495052631.720038, 0.021380, -0.012217, 0.000305, 0.044666, 0.000000, 0.966453, 24.866947, 1.997947, 55.280182, 0.032198, -0.054277, -0.041359

1495052631.733334, 0.023518, -0.014355, 0.002749, 0.044666, 0.000000, 0.966453, 24.914534, 2.036595, 55.275921, 0.031863, -0.054288, -0.042318

1495052631.746722, 0.021380, -0.016799, 0.003054, 0.059555, 0.015516, 0.966453, 24.952604, 2.067514, 55.272514, 0.031825, -0.054652, -0.042536

1495052631.760000, 0.016799, -0.017104, 0.001222, 0.059555, 0.015516, 0.966453, 24.983061, 2.092248, 55.269787, 0.031727, -0.055011, -0.042795

1495052631.773306, 0.015577, -0.014966, 0.000916, 0.074444, 0.015516, 0.935277, 24.925280, 2.071220, 55.290932, 0.031624, -0.055692, -0.043064

1495052631.786576, 0.021991, -0.015882, 0.000611, 0.044666, 0.015516, 0.966453, 24.879055, 2.054397, 55.307846, 0.031599, -0.055707, -0.043245

1495052631.800210, 0.024740, -0.010385, 0.003971, 0.044666, 0.015516, 0.966453, 24.842075, 2.061347, 55.344700, 0.031617, -0.055655, -0.043382

1495052631.813607, 0.019853, -0.008858, 0.001833, 0.059555, 0.000000, 0.950865, 24.812490, 2.066907, 55.374184, 0.031241, -0.055894, -0.044430

1495052631.826953, 0.021686, -0.013134, 0.003665, 0.044666, 0.031033, 0.966453, 24.788824, 2.071355, 55.397770, 0.031536, -0.055872, -0.043762

1495052631.840682, 0.020769, -0.014966, 0.001833, 0.044666, 0.031033, 0.966453, 24.790426, 2.115730, 55.416641, 0.031823, -0.055880, -0.043172

1495052631.854010, 0.020464, -0.017410, 0.003665, 0.044666, 0.015516, 0.982041, 24.791708, 2.151229, 55.431736, 0.031769, -0.055898, -0.043411

1495052631.867712, 0.018326, -0.016493, 0.000305, 0.029778, 0.015516, 0.982041, 24.813271, 2.179629, 55.443813, 0.031699, -0.055605, -0.043668

1495052631.881192, 0.016493, -0.017104, 0.003054, 0.029778, 0.015516, 0.982041, 24.830521, 2.202349, 55.453476, 0.031600, -0.055325, -0.043903

1495052631.894508, 0.019853, -0.014661, 0.004581, 0.059555, 0.015516, 0.982041, 24.844320, 2.220525, 55.461205, 0.031540, -0.055619, -0.044223

1495052631.907758, 0.018937, -0.014050, 0.002749, 0.059555, 0.015516, 0.982041, 24.834824, 2.214657, 55.420738, 0.031468, -0.055899, -0.044557

1495052631.921057, 0.020464, -0.014966, 0.006109, 0.029778, 0.015516, 0.966453, 24.827227, 2.209963, 55.388367, 0.031426, -0.055593, -0.044731

1495052631.934337, 0.022297, -0.016799, 0.002443, 0.059555, 0.031033, 0.950865, 24.882757, 2.083759, 55.385796, 0.031740, -0.055950, -0.044070

1495052631.947686, 0.023213, -0.013439, 0.003360, 0.059555, 0.031033, 0.950865, 24.927183, 1.982796, 55.383736, 0.032062, -0.056259, -0.043313

1495052631.960966, 0.018631, -0.016188, 0.003360, 0.044666, 0.046549, 0.982041, 24.962723, 1.902025, 55.382088, 0.032600, -0.056242, -0.041767

1495052631.974594, 0.019853, -0.012217, 0.003665, 0.044666, 0.031033, 0.997629, 24.950083, 1.980266, 55.357445, 0.032829, -0.056177, -0.041118

1495052631.988057, 0.019853, -0.013744, 0.003971, 0.044666, 0.031033, 0.997629, 24.939970, 2.042858, 55.337730, 0.033051, -0.056132, -0.040535

1495052632.001416, 0.021380, -0.010996, 0.001833, 0.044666, 0.015516, 0.982041, 24.931879, 2.031708, 55.345284, 0.032986, -0.056061, -0.040736

1495052632.015170, 0.018937, -0.013134, 0.002749, 0.044666, 0.015516, 0.982041, 24.925407, 2.022787, 55.351326, 0.032897, -0.056025, -0.040913

1495052632.028481, 0.019242, -0.016493, 0.003360, 0.044666, 0.015516, 0.966453, 24.920229, 2.015651, 55.356163, 0.032810, -0.056043, -0.041065

1495052632.042044, 0.016799, -0.014355, 0.004276, 0.044666, 0.015516, 0.982041, 24.895550, 1.989533, 55.336708, 0.032691, -0.056022, -0.041188

1495052632.055434, 0.020769, -0.015272, 0.005498, 0.044666, 0.015516, 0.982041, 24.875807, 1.968640, 55.321144, 0.032623, -0.056012, -0.041276

1495052632.068767, 0.018937, -0.012523, 0.006414, 0.059555, 0.015516, 0.950865, 24.860012, 1.951925, 55.308693, 0.032539, -0.056308, -0.041354

1495052632.082105, 0.018326, -0.013134, 0.002749, 0.044666, 0.000000, 0.935277, 24.970596, 1.836512, 55.298729, 0.032130, -0.056295, -0.042137

1495052632.095446, 0.014355, -0.012523, 0.000611, 0.044666, 0.000000, 0.935277, 25.059063, 1.744182, 55.290760, 0.031678, -0.056277, -0.042844

1495052632.108731, 0.018021, -0.013134, 0.001833, 0.074444, 0.077582, 0.966453, 25.027155, 1.772358, 55.284386, 0.032911, -0.056774, -0.039411

1495052632.122082, 0.023518, -0.013439, 0.003360, 0.074444, 0.077582, 0.966453, 25.001627, 1.794899, 55.279285, 0.034190, -0.057271, -0.036047

1495052632.135372, 0.025045, -0.016188, 0.004276, 0.059555, 0.000000, 0.966453, 24.981205, 1.812932, 55.275204, 0.033828, -0.057553, -0.036958

1495052632.149003, 0.021991, -0.014050, 0.004887, 0.029778, 0.015516, 0.950865, 24.964869, 1.827359, 55.271938, 0.033768, -0.057218, -0.036952

1495052632.162392, 0.021380, -0.010079, 0.003971, 0.029778, 0.015516, 0.950865, 24.951799, 1.838900, 55.269325, 0.033698, -0.056833, -0.036968

1495052632.175749, 0.022297, -0.015882, 0.001833, 0.059555, 0.015516, 0.950865, 24.900270, 1.909357, 55.313885, 0.033641, -0.057154, -0.037152

1495052632.189536, 0.023824, -0.014966, 0.004887, 0.059555, 0.015516, 0.982041, 24.859047, 1.965723, 55.349533, 0.033602, -0.057424, -0.037367

1495052632.202855, 0.023213, -0.009468, 0.001833, 0.059555, 0.015516, 0.982041, 24.826069, 2.010816, 55.378052, 0.033548, -0.057608, -0.037659

1495052632.216475, 0.021380, -0.014050, -0.000000, 0.029778, 0.031033, 0.966453, 24.881832, 2.046890, 55.307571, 0.033798, -0.057260, -0.037145

1495052632.229877, 0.025045, -0.018937, 0.004276, 0.029778, 0.031033, 0.966453, 24.926443, 2.075749, 55.251186, 0.034083, -0.056981, -0.036613

1495052632.243189, 0.018631, -0.014661, 0.003360, 0.044666, 0.031033, 0.950865, 24.900522, 2.078429, 55.252724, 0.034293, -0.056973, -0.036090

1495052632.256480, 0.017410, -0.014355, 0.005192, 0.044666, 0.000000, 0.982041, 24.879786, 2.080572, 55.253956, 0.033837, -0.056913, -0.037161

1495052632.269814, 0.018021, -0.015882, 0.003054, 0.044666, 0.000000, 0.982041, 24.863195, 2.082287, 55.254940, 0.033400, -0.056874, -0.038241

1495052632.283083, 0.021991, -0.014966, 0.003665, 0.044666, 0.031033, 0.966453, 24.829388, 2.083659, 55.232407, 0.033655, -0.056856, -0.037713

1495052632.296422, 0.020769, -0.016799, 0.002443, 0.029778, 0.015516, 0.966453, 24.802341, 2.084757, 55.214378, 0.033577, -0.056553, -0.037967

1495052632.309739, 0.015882, -0.012217, 0.001833, 0.029778, 0.015516, 0.966453, 24.801241, 2.146859, 55.246605, 0.033436, -0.056195, -0.038275

1495052632.323391, 0.024740, -0.014966, 0.005192, 0.059555, 0.031033, 0.966453, 24.800360, 2.196541, 55.272385, 0.033738, -0.056504, -0.037842

1495052632.336816, 0.020159, -0.014050, 0.002138, 0.059555, 0.031033, 0.966453, 24.799656, 2.236286, 55.293007, 0.033970, -0.056790, -0.037494

1495052632.350148, 0.017715, -0.011606, 0.002443, 0.029778, 0.000000, 0.904101, 24.819628, 2.186450, 55.239532, 0.033534, -0.056447, -0.038607

1495052632.363872, 0.023213, -0.015272, 0.001222, 0.044666, 0.015516, 0.950865, 24.835606, 2.146581, 55.196754, 0.033503, -0.056459, -0.038944

1495052632.377196, 0.019242, -0.014966, 0.004887, 0.044666, 0.015516, 0.950865, 24.827852, 2.094278, 55.185856, 0.033408, -0.056464, -0.039180

1495052632.390706, 0.020464, -0.012828, 0.000305, 0.044666, 0.015516, 0.982041, 24.821650, 2.052435, 55.177139, 0.033329, -0.056411, -0.039454

1495052632.404157, 0.017715, -0.014050, 0.004581, 0.044666, 0.000000, 0.966453, 24.816687, 2.018961, 55.170166, 0.032898, -0.056377, -0.040418

1495052632.417511, 0.021380, -0.014966, 0.003971, 0.044666, 0.000000, 0.966453, 24.792181, 2.032998, 55.187908, 0.032522, -0.056354, -0.041386

1495052632.430792, 0.020464, -0.016799, 0.000305, 0.059555, 0.031033, 0.982041, 24.772575, 2.044228, 55.202103, 0.032771, -0.056657, -0.040842

1495052632.444134, 0.018631, -0.017104, 0.002138, 0.059555, 0.031033, 0.982041, 24.797964, 2.032803, 55.260105, 0.032991, -0.056959, -0.040272

1495052632.457437, 0.021991, -0.017410, 0.006109, 0.044666, 0.015516, 0.966453, 24.818275, 2.023664, 55.306507, 0.032936, -0.056971, -0.040413

1495052632.470754, 0.014661, -0.015882, 0.005498, 0.044666, 0.031033, 0.966453, 24.834524, 2.016352, 55.343632, 0.033104, -0.056965, -0.039754

1495052632.484042, 0.016493, -0.017410, 0.004581, 0.044666, 0.031033, 0.966453, 24.806450, 2.010503, 55.350006, 0.033292, -0.056978, -0.039117

1495052632.497672, 0.019548, -0.013134, 0.002749, 0.059555, 0.031033, 0.982041, 24.783991, 2.005823, 55.355106, 0.033518, -0.057226, -0.038543

1495052632.511075, 0.017410, -0.015272, 0.003665, 0.059555, 0.031033, 0.966453, 24.786560, 2.022488, 55.312538, 0.033717, -0.057514, -0.037962

1495052632.524401, 0.022297, -0.014966, 0.001527, 0.059555, 0.031033, 0.966453, 24.788616, 2.035820, 55.278484, 0.033976, -0.057791, -0.037434

1495052632.538158, 0.015577, -0.012828, 0.002138, 0.044666, 0.015516, 0.966453, 24.790260, 2.046485, 55.251240, 0.033828, -0.057730, -0.037703

1495052632.551492, 0.020769, -0.015577, 0.002138, 0.044666, 0.015516, 0.935277, 24.771040, 2.055017, 55.252769, 0.033755, -0.057731, -0.037955

1495052632.564961, 0.022907, -0.014355, 0.005192, 0.029778, 0.015516, 0.935277, 24.755663, 2.061843, 55.253990, 0.033713, -0.057403, -0.038125

1495052632.578377, 0.018021, -0.012523, 0.003665, 0.044666, 0.015516, 0.997629, 24.763897, 2.108120, 55.254967, 0.033587, -0.057313, -0.038438

1495052632.591685, 0.021380, -0.011301, 0.002749, 0.044666, 0.015516, 0.997629, 24.770485, 2.145142, 55.255749, 0.033505, -0.057206, -0.038789

1495052632.604967, 0.020769, -0.012523, 0.002138, 0.029778, 0.015516, 0.966453, 24.775755, 2.174759, 55.256374, 0.033430, -0.056839, -0.039102

1495052632.618305, 0.019853, -0.011912, 0.002138, 0.044666, 0.000000, 0.982041, 24.738899, 2.116820, 55.280201, 0.033025, -0.056749, -0.040195

1495052632.631579, 0.022907, -0.019242, 0.006109, 0.044666, 0.000000, 0.982041, 24.709414, 2.070469, 55.299263, 0.032665, -0.056759, -0.041179

1495052632.644918, 0.021991, -0.015272, 0.003971, 0.044666, 0.015516, 0.950865, 24.726898, 2.074205, 55.314510, 0.032624, -0.056762, -0.041367

1495052632.658228, 0.024129, -0.015882, 0.003360, 0.044666, 0.015516, 0.950865, 24.740887, 2.077193, 55.326710, 0.032611, -0.056772, -0.041562

1495052632.671876, 0.020769, -0.015272, 0.002443, 0.029778, 0.015516, 0.982041, 24.752077, 2.079584, 55.336468, 0.032554, -0.056446, -0.041744

1495052632.685420, 0.018021, -0.016493, 0.002749, 0.044666, 0.000000, 0.935277, 24.740492, 2.061088, 55.344276, 0.032145, -0.056475, -0.042739

1495052632.698820, 0.018937, -0.013439, 0.001833, 0.044666, 0.000000, 0.935277, 24.731224, 2.046292, 55.350521, 0.031754, -0.056462, -0.043713

1495052632.712576, 0.017410, -0.019242, 0.000305, 0.029778, 0.015516, 0.950865, 24.723810, 2.034454, 55.355518, 0.031682, -0.056217, -0.043823

1495052632.725881, 0.018326, -0.018021, -0.000916, 0.044666, 0.015516, 0.982041, 24.717878, 2.024985, 55.359516, 0.031605, -0.056235, -0.044000

1495052632.739458, 0.019853, -0.015577, 0.001833, 0.044666, 0.015516, 0.982041, 24.713133, 2.017409, 55.362713, 0.031553, -0.056226, -0.044131

1495052632.752848, 0.016188, -0.013439, 0.000305, 0.044666, 0.015516, 0.950865, 24.750410, 2.011348, 55.341946, 0.031461, -0.056216, -0.044249

1495052632.766191, 0.020159, -0.011606, 0.003054, 0.029778, 0.031033, 0.982041, 24.780231, 2.006500, 55.325333, 0.031717, -0.055850, -0.043552

1495052632.779482, 0.019853, -0.013134, 0.003054, 0.029778, 0.031033, 0.982041, 24.804089, 2.023029, 55.335365, 0.031963, -0.055512, -0.042883

1495052632.792798, 0.018326, -0.014355, 0.002749, 0.059555, 0.031033, 0.966453, 24.823175, 2.036252, 55.343391, 0.032205, -0.055820, -0.042238

1495052632.806058, 0.019548, -0.016799, -0.000305, 0.059555, 0.031033, 0.966453, 24.838444, 2.046831, 55.349815, 0.032459, -0.056152, -0.041657

1495052632.819372, 0.018631, -0.015882, 0.000611, 0.029778, 0.015516, 0.966453, 24.830122, 2.014478, 55.308304, 0.032376, -0.055851, -0.041792

1495052632.832659, 0.021991, -0.011301, 0.003971, 0.044666, 0.031033, 0.950865, 24.823465, 1.988595, 55.275097, 0.032661, -0.055821, -0.041075

1495052632.846353, 0.020159, -0.014050, 0.004581, 0.044666, 0.031033, 0.950865, 24.838676, 1.988297, 55.295177, 0.032925, -0.055834, -0.040364

1495052632.859739, 0.020769, -0.015272, 0.004887, 0.029778, 0.000000, 0.950865, 24.850845, 1.988059, 55.311241, 0.032546, -0.055531, -0.041208

1495052632.873208, 0.022907, -0.015882, 0.004276, 0.029778, 0.000000, 0.966453, 24.860580, 1.987868, 55.324093, 0.032206, -0.055234, -0.042040

1495052632.886949, 0.018021, -0.012523, 0.003360, 0.029778, 0.000000, 0.966453, 24.827295, 2.008124, 55.357700, 0.031813, -0.054901, -0.042885

1495052632.900259, 0.016799, -0.014050, 0.004276, 0.029778, 0.015516, 0.966453, 24.800667, 2.024328, 55.384586, 0.031715, -0.054603, -0.042957

1495052632.913962, 0.018937, -0.015272, 0.002443, 0.029778, 0.015516, 0.966453, 24.799900, 2.016884, 55.336121, 0.031656, -0.054332, -0.043044

1495052632.927318, 0.021686, -0.014661, 0.003054, 0.044666, 0.031033, 0.997629, 24.799288, 2.010928, 55.297348, 0.031924, -0.054333, -0.042410

1495052632.940620, 0.019853, -0.013134, -0.000916, 0.044666, 0.015516, 0.982041, 24.798798, 2.006164, 55.266331, 0.031862, -0.054325, -0.042595

1495052632.953913, 0.021075, -0.014050, 0.001833, 0.044666, 0.015516, 0.982041, 24.777868, 2.022760, 55.218193, 0.031815, -0.054329, -0.042757

1495052632.967252, 0.021380, -0.014355, 0.002749, 0.059555, 0.015516, 0.966453, 24.761126, 2.036037, 55.179684, 0.031777, -0.054660, -0.042950

1495052632.980529, 0.019548, -0.018021, 0.004887, 0.044666, 0.046549, 0.966453, 24.768269, 2.005843, 55.242172, 0.032349, -0.054715, -0.041447

1495052632.993897, 0.018937, -0.014661, 0.003971, 0.044666, 0.046549, 0.966453, 24.773983, 1.981687, 55.292164, 0.032904, -0.054726, -0.039960

1495052633.007200, 0.021380, -0.013134, 0.003054, 0.029778, 0.000000, 0.966453, 24.778553, 1.962362, 55.332157, 0.032533, -0.054405, -0.040817

1495052633.020816, 0.021991, -0.011301, 0.001527, 0.029778, 0.000000, 0.966453, 24.802746, 1.926495, 55.364151, 0.032185, -0.054071, -0.041643

1495052633.034197, 0.015577, -0.011912, -0.000000, 0.044666, 0.031033, 0.982041, 24.822100, 1.897801, 55.389744, 0.032374, -0.054055, -0.040947

1495052633.047588, 0.021991, -0.015882, 0.001222, 0.044666, 0.015516, 0.966453, 24.837584, 1.915662, 55.433544, 0.032337, -0.054105, -0.041039

1495052633.061326, 0.023824, -0.018326, 0.003360, 0.044666, 0.015516, 0.966453, 24.788361, 1.929950, 55.468582, 0.032330, -0.054194, -0.041115

1495052633.074601, 0.014966, -0.013744, 0.003665, 0.044666, 0.015516, 0.997629, 24.748983, 1.941381, 55.496613, 0.032188, -0.054184, -0.041218

1495052633.088238, 0.019548, -0.012523, 0.000611, 0.044666, 0.015516, 0.950865, 24.738018, 1.970934, 55.449066, 0.032132, -0.054206, -0.041353

1495052633.101624, 0.021380, -0.014966, 0.003360, 0.044666, 0.015516, 0.950865, 24.729246, 1.994577, 55.411030, 0.032095, -0.054257, -0.041473

1495052633.114931, 0.022907, -0.013744, 0.006720, 0.044666, 0.031033, 0.966453, 24.722227, 2.013491, 55.380600, 0.032387, -0.054277, -0.040774

1495052633.128243, 0.024129, -0.013134, 0.005803, 0.044666, 0.031033, 0.966453, 24.716612, 2.028622, 55.356255, 0.032690, -0.054288, -0.040115

1495052633.141556, 0.026267, -0.014966, 0.000611, 0.059555, 0.015516, 0.982041, 24.712120, 2.040727, 55.336781, 0.032694, -0.054607, -0.040405

1495052633.154832, 0.020769, -0.015882, 0.003360, 0.029778, 0.000000, 0.966453, 24.729063, 2.030003, 55.274551, 0.032319, -0.054323, -0.041312

1495052633.168165, 0.021991, -0.013744, -0.000000, 0.029778, 0.000000, 0.966453, 24.742619, 2.021423, 55.224770, 0.031971, -0.054018, -0.042235

1495052633.181449, 0.020769, -0.016493, -0.001222, 0.044666, 0.015516, 0.950865, 24.753462, 2.014560, 55.184944, 0.031930, -0.054089, -0.042418

1495052633.195077, 0.019242, -0.017104, -0.000611, 0.059555, 0.015516, 0.966453, 24.823746, 1.907028, 55.199730, 0.031870, -0.054465, -0.042540

1495052633.208452, 0.016493, -0.013744, 0.002138, 0.059555, 0.015516, 0.966453, 24.879972, 1.821002, 55.211559, 0.031769, -0.054787, -0.042539

1495052633.221804, 0.020159, -0.014661, 0.000305, 0.044666, 0.015516, 0.997629, 24.883883, 1.854223, 55.221024, 0.031709, -0.054778, -0.042577

1495052633.235519, 0.018631, -0.014355, 0.002138, 0.044666, 0.015516, 0.997629, 24.887011, 1.880800, 55.228596, 0.031635, -0.054770, -0.042614

1495052633.248846, 0.020159, -0.012217, 0.000916, 0.044666, 0.031033, 0.997629, 24.889513, 1.902061, 55.234653, 0.031884, -0.054730, -0.041919

1495052633.262367, 0.020464, -0.012217, 0.000916, 0.029778, 0.031033, 0.982041, 24.788832, 1.959886, 55.239498, 0.032141, -0.054404, -0.041258

1495052633.275756, 0.018326, -0.012828, -0.000305, 0.029778, 0.031033, 0.982041, 24.708288, 2.006146, 55.243374, 0.032363, -0.054090, -0.040668

1495052633.289084, 0.019548, -0.016493, 0.002749, 0.059555, 0.031033, 0.982041, 24.705462, 1.981930, 55.269798, 0.032604, -0.054436, -0.040047

1495052633.302370, 0.020464, -0.009468, 0.006414, 0.044666, 0.015516, 0.982041, 24.703199, 1.962557, 55.290939, 0.032530, -0.054380, -0.040146

1495052633.315701, 0.021686, -0.013134, 0.005803, 0.044666, 0.015516, 0.982041, 24.701391, 1.947058, 55.307854, 0.032476, -0.054374, -0.040239

1495052633.328979, 0.019548, -0.013439, 0.001833, 0.029778, 0.046549, 0.982041, 24.679407, 1.914251, 55.298058, 0.033010, -0.054058, -0.038805

1495052633.342323, 0.018937, -0.013134, 0.003360, 0.029778, 0.046549, 0.982041, 24.661819, 1.888006, 55.290222, 0.033526, -0.053746, -0.037356

1495052633.355601, 0.016188, -0.014661, 0.004581, 0.029778, 0.031033, 0.997629, 24.688824, 1.867009, 55.283955, 0.033678, -0.053461, -0.036683

1495052633.369251, 0.016188, -0.017715, 0.003665, 0.044666, 0.000000, 0.982041, 24.710426, 1.850212, 55.278938, 0.033223, -0.053524, -0.037570

1495052633.382719, 0.022297, -0.014355, 0.001527, 0.044666, 0.000000, 0.982041, 24.727709, 1.836775, 55.274925, 0.032856, -0.053538, -0.038454

1495052633.396037, 0.018021, -0.013134, 0.001527, 0.044666, 0.015516, 0.997629, 24.741535, 1.846433, 55.225067, 0.032745, -0.053533, -0.038556

1495052633.409766, 0.018326, -0.015577, 0.002749, 0.059555, 0.015516, 0.966453, 24.752596, 1.854159, 55.185181, 0.032655, -0.053902, -0.038664

1495052633.423054, 0.022907, -0.017410, 0.001222, 0.059555, 0.015516, 0.966453, 24.802517, 1.880748, 55.223244, 0.032621, -0.054281, -0.038814

1495052633.436426, 0.019853, -0.014355, 0.002749, 0.044666, 0.000000, 0.966453, 24.842453, 1.902020, 55.253696, 0.032231, -0.054293, -0.039709

1495052633.449742, 0.016799, -0.015882, 0.003360, 0.044666, 0.015516, 0.935277, 24.874403, 1.919037, 55.278057, 0.032136, -0.054369, -0.039778

1495052633.463059, 0.017410, -0.011301, 0.007636, 0.029778, 0.015516, 0.935277, 24.858891, 1.932650, 55.250900, 0.032048, -0.054069, -0.039764

1495052633.476378, 0.020159, -0.015882, 0.004581, 0.044666, 0.015516, 0.950865, 24.846479, 1.943541, 55.229172, 0.031994, -0.054134, -0.039851

1495052633.489728, 0.016188, -0.013439, 0.004887, 0.044666, 0.015516, 0.950865, 24.918697, 1.911438, 55.211792, 0.031889, -0.054167, -0.039900

1495052633.503013, 0.016188, -0.016493, 0.003971, 0.044666, 0.000000, 0.982041, 24.976471, 1.885755, 55.197887, 0.031464, -0.054195, -0.040731

1495052633.516608, 0.020159, -0.015272, 0.003971, 0.059555, 0.031033, 0.982041, 25.022690, 1.865209, 55.186764, 0.031735, -0.054527, -0.039982

1495052633.529914, 0.015882, -0.013744, 0.001833, 0.059555, 0.031033, 0.982041, 24.956984, 1.848772, 55.201187, 0.031940, -0.054827, -0.039261

1495052633.543455, 0.018937, -0.014355, 0.001833, 0.059555, 0.015516, 0.982041, 24.904417, 1.835622, 55.212727, 0.031867, -0.055132, -0.039353

1495052633.557160, 0.018937, -0.010996, 0.002749, 0.044666, 0.015516, 0.982041, 24.841827, 1.865919, 55.221958, 0.031799, -0.055086, -0.039422

1495052633.570426, 0.016493, -0.017715, 0.000611, 0.044666, 0.015516, 0.982041, 24.791756, 1.890156, 55.229343, 0.031694, -0.055123, -0.039545

1495052633.584112, 0.019242, -0.016799, 0.003054, 0.029778, 0.031033, 0.966453, 24.751699, 1.909546, 55.235252, 0.031950, -0.054863, -0.038838

1495052633.597523, 0.021075, -0.015882, 0.004581, 0.029778, 0.031033, 0.966453, 24.781263, 1.904650, 55.216656, 0.032219, -0.054592, -0.038122

1495052633.610832, 0.022602, -0.013744, 0.005192, 0.044666, 0.015516, 0.982041, 24.804914, 1.900733, 55.201778, 0.032183, -0.054589, -0.038219

1495052633.624107, 0.015272, -0.016493, 0.003360, 0.044666, 0.031033, 0.997629, 24.803299, 1.877191, 55.189877, 0.032355, -0.054608, -0.037561

1495052633.637459, 0.014966, -0.015882, 0.001833, 0.044666, 0.031033, 0.997629, 24.802006, 1.858358, 55.180355, 0.032521, -0.054619, -0.036919

1495052633.650727, 0.017715, -0.018021, 0.003054, 0.044666, 0.031033, 0.966453, 24.800972, 1.843291, 55.172737, 0.032739, -0.054686, -0.036213

1495052633.664059, 0.023518, -0.011912, 0.003971, 0.044666, 0.031033, 0.982041, 24.759071, 1.892462, 55.213291, 0.033018, -0.054659, -0.035575

1495052633.677346, 0.024435, -0.015272, 0.001527, 0.044666, 0.031033, 0.982041, 24.725552, 1.931799, 55.245735, 0.033304, -0.054674, -0.035017

1495052633.690926, 0.021380, -0.010996, 0.005803, 0.044666, 0.015516, 0.966453, 24.760345, 1.942860, 55.155067, 0.033241, -0.054651, -0.035195

1495052633.704333, 0.018326, -0.013439, 0.005192, 0.044666, 0.015516, 0.966453, 24.788179, 1.951709, 55.082535, 0.033135, -0.054658, -0.035387

1495052633.717695, 0.024435, -0.014355, 0.004887, 0.044666, 0.046549, 0.950865, 24.810448, 1.958789, 55.024509, 0.033762, -0.054682, -0.033962

1495052633.731417, 0.021991, -0.012217, 0.003360, 0.029778, 0.046549, 0.966453, 24.807726, 1.842003, 55.048061, 0.034327, -0.054360, -0.032546

1495052633.744771, 0.021686, -0.015577, 0.004276, 0.029778, 0.046549, 0.966453, 24.805548, 1.748575, 55.066902, 0.034868, -0.054085, -0.031067

1495052633.758351, 0.015577, -0.017410, 0.000611, 0.029778, 0.015516, 0.982041, 24.762733, 1.816689, 55.105297, 0.034696, -0.053839, -0.031261

1495052633.771756, 0.017104, -0.010690, -0.001833, 0.044666, 0.015516, 0.966453, 24.728481, 1.871181, 55.136013, 0.034550, -0.053823, -0.031552

1495052633.785076, 0.017410, -0.014050, -0.000000, 0.044666, 0.015516, 0.966453, 24.701080, 1.914774, 55.160587, 0.034409, -0.053851, -0.031855

1495052633.798366, 0.018021, -0.015272, 0.002138, 0.044666, 0.000000, 0.982041, 24.679159, 1.949648, 55.180244, 0.033959, -0.053864, -0.032951

1495052633.811685, 0.018631, -0.013744, 0.000305, 0.044666, 0.000000, 0.982041, 24.661621, 1.977548, 55.195972, 0.033528, -0.053856, -0.034074

1495052633.824981, 0.018631, -0.015272, 0.002443, 0.059555, 0.015516, 0.950865, 24.709200, 1.979459, 55.185230, 0.033424, -0.054227, -0.034385

1495052633.838344, 0.018631, -0.017104, 0.003360, 0.044666, 0.015516, 0.966453, 24.747263, 1.980989, 55.176636, 0.033320, -0.054289, -0.034646

1495052633.851612, 0.016188, -0.014661, 0.003971, 0.044666, 0.015516, 0.966453, 24.777714, 1.982212, 55.169762, 0.033184, -0.054316, -0.034893

1495052633.865230, 0.018021, -0.018631, 0.003665, 0.089333, 0.015516, 0.950865, 24.781538, 1.921966, 55.234234, 0.033079, -0.055350, -0.035206

1495052633.878714, 0.021380, -0.018021, 0.004581, 0.029778, 0.031033, 0.982041, 24.784597, 1.873769, 55.285812, 0.033321, -0.055090, -0.034558

1495052633.892076, 0.023213, -0.017104, 0.000916, 0.029778, 0.031033, 0.982041, 24.807581, 1.876028, 55.303749, 0.033583, -0.054819, -0.033973

1495052633.905856, 0.022907, -0.016188, 0.003360, 0.044666, 0.031033, 0.950865, 24.825968, 1.877836, 55.318100, 0.033869, -0.054881, -0.033320

1495052633.919175, 0.020159, -0.014966, 0.003054, 0.044666, 0.031033, 0.950865, 24.840677, 1.879281, 55.329582, 0.034103, -0.054919, -0.032686

1495052633.932723, 0.019548, -0.013744, 0.001833, 0.044666, 0.000000, 0.950865, 24.770300, 1.900846, 55.315441, 0.033683, -0.054925, -0.033724

1495052633.946216, 0.022602, -0.012523, 0.004887, 0.059555, 0.015516, 0.966453, 24.713999, 1.918098, 55.304131, 0.033626, -0.055222, -0.033960

1495052633.959536, 0.017104, -0.014355, 0.001527, 0.059555, 0.015516, 0.966453, 24.771639, 1.809451, 55.318405, 0.033496, -0.055535, -0.034132

1495052633.972809, 0.021075, -0.018326, 0.000611, 0.044666, 0.015516, 0.966453, 24.817751, 1.722533, 55.329826, 0.033422, -0.055585, -0.034197

1495052633.986236, 0.021686, -0.015272, 0.001222, 0.029778, 0.000000, 0.950865, 24.854641, 1.652998, 55.338963, 0.033047, -0.055289, -0.034924

1495052633.999519, 0.023824, -0.017410, 0.003054, 0.029778, 0.000000, 0.950865, 24.802008, 1.699412, 55.252975, 0.032703, -0.055025, -0.035657

1495052634.012824, 0.017104, -0.007636, -0.000000, 0.044666, 0.015516, 0.966453, 24.759901, 1.736542, 55.184185, 0.032594, -0.054947, -0.035712

1495052634.026104, 0.019242, -0.010690, 0.002138, 0.044666, 0.015516, 0.966453, 24.726215, 1.664206, 55.129154, 0.032512, -0.054912, -0.035676

1495052634.039725, 0.019242, -0.011912, 0.000611, 0.044666, 0.031033, 0.966453, 24.760876, 1.606337, 55.108452, 0.032757, -0.054896, -0.034813

1495052634.053126, 0.022297, -0.010996, 0.002138, 0.044666, 0.015516, 0.982041, 24.788605, 1.560042, 55.091888, 0.032709, -0.054853, -0.034711

1495052634.066525, 0.018631, -0.010996, 0.003971, 0.044666, 0.015516, 0.982041, 24.790251, 1.584230, 55.101963, 0.032613, -0.054812, -0.034608

1495052634.080202, 0.017715, -0.013744, 0.003665, 0.029778, 0.031033, 0.982041, 24.791569, 1.603580, 55.110023, 0.032817, -0.054508, -0.033753

1495052634.093536, 0.017715, -0.015272, 0.004276, 0.044666, 0.015516, 0.982041, 24.792622, 1.619061, 55.116470, 0.032706, -0.054528, -0.033699

1495052634.107059, 0.018631, -0.015577, 0.004887, 0.044666, 0.015516, 0.982041, 24.793465, 1.631445, 55.121628, 0.032611, -0.054555, -0.033648

1495052634.120457, 0.018326, -0.013439, 0.002138, 0.044666, 0.015516, 0.966453, 24.794140, 1.641353, 55.125755, 0.032520, -0.054564, -0.033632

1495052634.133756, 0.015882, -0.015272, 0.004276, 0.044666, 0.015516, 0.950865, 24.774143, 1.710503, 55.152382, 0.032400, -0.054612, -0.033640

1495052634.147056, 0.019548, -0.014355, 0.001833, 0.029778, 0.046549, 0.950865, 24.758146, 1.765824, 55.173683, 0.032967, -0.054321, -0.032141

1495052634.160377, 0.022602, -0.014355, 0.003054, 0.044666, 0.015516, 0.982041, 24.745348, 1.810080, 55.190723, 0.032918, -0.054331, -0.032307

1495052634.173651, 0.020769, -0.012523, 0.003054, 0.044666, 0.015516, 0.982041, 24.776182, 1.825077, 55.134384, 0.032845, -0.054316, -0.032482

1495052634.187038, 0.018631, -0.014050, 0.003054, 0.059555, 0.015516, 0.966453, 24.800850, 1.837074, 55.089314, 0.032751, -0.054643, -0.032690

1495052634.200317, 0.021380, -0.014966, 0.002443, 0.044666, 0.015516, 0.966453, 24.779510, 1.846672, 55.076580, 0.032695, -0.054668, -0.032876

1495052634.213954, 0.020159, -0.013744, 0.006720, 0.044666, 0.015516, 0.966453, 24.762440, 1.854351, 55.066391, 0.032628, -0.054683, -0.033007

1495052634.227372, 0.018021, -0.015882, 0.003665, 0.044666, 0.000000, 0.966453, 24.748783, 1.860493, 55.058243, 0.032214, -0.054707, -0.033976

1495052634.240705, 0.020769, -0.015272, 0.005192, 0.044666, 0.015516, 0.966453, 24.799467, 1.845000, 55.075047, 0.032160, -0.054737, -0.034098

1495052634.254485, 0.025045, -0.014661, 0.005803, 0.029778, 0.015516, 0.966453, 24.840014, 1.832604, 55.088490, 0.032173, -0.054457, -0.034159

1495052634.267808, 0.019853, -0.015272, 0.004887, 0.029778, 0.000000, 0.950865, 24.892988, 1.822688, 55.145893, 0.031796, -0.054182, -0.034983

1495052634.281321, 0.023518, -0.013439, 0.006109, 0.029778, 0.000000, 0.950865, 24.935368, 1.814755, 55.191814, 0.031477, -0.053891, -0.035762

1495052634.294714, 0.021380, -0.014050, 0.005498, 0.044666, 0.015516, 0.982041, 24.969271, 1.808409, 55.228554, 0.031441, -0.053908, -0.035813

1495052634.308062, 0.014355, -0.014050, 0.002749, 0.029778, 0.031033, 0.950865, 24.893711, 1.701291, 55.257942, 0.031642, -0.053640, -0.034978

1495052634.321345, 0.019853, -0.016493, 0.000305, 0.029778, 0.031033, 0.950865, 24.833263, 1.615597, 55.281456, 0.031910, -0.053408, -0.034118

1495052634.334662, 0.017104, -0.014355, 0.001527, 0.044666, 0.046549, 0.950865, 24.805441, 1.628674, 55.276939, 0.032467, -0.053452, -0.032453

1495052634.347987, 0.019853, -0.016493, 0.001527, 0.059555, 0.000000, 0.935277, 24.783184, 1.639136, 55.273327, 0.032073, -0.053856, -0.033336

1495052634.361308, 0.025351, -0.015577, 0.005192, 0.059555, 0.000000, 0.935277, 24.765379, 1.647505, 55.270439, 0.031755, -0.054242, -0.034162

1495052634.374583, 0.022297, -0.018937, 0.001833, 0.044666, 0.015516, 0.966453, 24.730598, 1.633793, 55.244804, 0.031730, -0.054328, -0.034135

1495052634.388289, 0.023213, -0.014355, 0.002443, 0.044666, 0.015516, 0.966453, 24.702774, 1.622823, 55.224297, 0.031727, -0.054359, -0.034089

1495052634.401698, 0.023518, -0.015577, 0.002443, 0.044666, 0.015516, 0.966453, 24.721586, 1.634454, 55.184566, 0.031721, -0.054401, -0.034056

1495052634.415038, 0.016493, -0.015272, 0.004276, 0.059555, 0.015516, 0.966453, 24.736637, 1.643760, 55.152782, 0.031621, -0.054745, -0.034038

1495052634.428756, 0.013134, -0.015882, -0.000611, 0.059555, 0.015516, 0.966453, 24.748676, 1.651205, 55.127354, 0.031487, -0.055093, -0.034092

1495052634.442092, 0.018937, -0.014661, 0.003665, 0.044666, 0.031033, 0.966453, 24.737772, 1.657160, 55.153660, 0.031740, -0.055108, -0.033266

1495052634.455623, 0.023518, -0.017104, 0.005192, 0.029778, 0.046549, 0.982041, 24.729048, 1.661925, 55.174706, 0.032343, -0.054829, -0.031716

1495052634.469010, 0.020159, -0.017104, 0.001527, 0.029778, 0.046549, 0.982041, 24.722069, 1.665736, 55.214867, 0.032890, -0.054553, -0.030247

1495052634.482354, 0.022602, -0.017715, 0.003054, 0.059555, 0.046549, 0.966453, 24.716486, 1.668785, 55.246994, 0.033493, -0.054913, -0.028678

1495052634.495666, 0.018937, -0.011912, 0.003360, 0.059555, 0.046549, 0.966453, 24.712019, 1.671225, 55.272697, 0.034035, -0.055190, -0.027135

1495052634.508996, 0.019548, -0.012523, -0.000000, 0.074444, 0.000000, 0.966453, 24.728983, 1.652768, 55.293259, 0.033599, -0.055769, -0.028220

1495052634.522295, 0.024435, -0.013134, 0.003665, 0.059555, 0.031033, 0.966453, 24.742554, 1.638003, 55.309708, 0.033887, -0.056057, -0.027485

1495052634.535642, 0.019548, -0.014966, 0.002443, 0.059555, 0.031033, 0.966453, 24.691801, 1.687415, 55.299541, 0.034108, -0.056364, -0.026827

1495052634.548931, 0.021380, -0.017104, 0.003360, 0.044666, 0.015516, 0.966453, 24.651199, 1.726945, 55.291409, 0.034024, -0.056382, -0.027012

1495052634.562634, 0.019242, -0.014661, 0.000305, 0.029778, 0.031033, 0.950865, 24.618717, 1.758569, 55.284904, 0.034247, -0.056078, -0.026434

1495052634.576003, 0.018326, -0.012828, 0.002749, 0.029778, 0.031033, 0.950865, 24.613268, 1.783868, 55.256378, 0.034447, -0.055752, -0.025857

1495052634.589405, 0.018326, -0.015272, -0.000916, 0.014889, 0.000000, 0.950865, 24.608910, 1.804107, 55.233555, 0.034019, -0.055133, -0.026863

1495052634.603109, 0.016493, -0.017715, -0.001527, 0.014889, 0.000000, 0.950865, 24.667032, 1.738666, 55.191971, 0.033579, -0.054565, -0.027801

1495052634.616434, 0.018326, -0.014661, -0.000000, 0.059555, 0.015516, 0.982041, 24.713530, 1.686313, 55.158707, 0.033463, -0.054875, -0.028015

1495052634.629981, 0.020769, -0.014050, 0.003054, 0.044666, 0.031033, 0.950865, 24.750727, 1.644431, 55.132095, 0.033717, -0.054904, -0.027281

1495052634.643332, 0.021075, -0.017410, 0.005803, 0.044666, 0.031033, 0.950865, 24.739412, 1.692557, 55.180779, 0.033964, -0.054975, -0.026569

1495052634.656608, 0.025045, -0.016799, 0.007330, 0.044666, 0.015516, 0.982041, 24.730360, 1.731059, 55.219723, 0.033923, -0.055004, -0.026721

1495052634.669927, 0.024129, -0.014966, 0.005803, 0.029778, 0.015516, 0.966453, 24.702583, 1.700635, 55.250877, 0.033879, -0.054716, -0.026820

1495052634.683276, 0.014661, -0.012828, 0.003665, 0.029778, 0.015516, 0.966453, 24.680361, 1.676297, 55.275803, 0.033714, -0.054406, -0.026924

1495052634.696562, 0.021991, -0.012217, 0.002749, 0.059555, 0.031033, 0.966453, 24.662582, 1.656826, 55.295742, 0.033968, -0.054709, -0.026244

1495052634.709991, 0.020769, -0.013134, 0.001833, 0.059555, 0.031033, 0.966453, 24.648361, 1.722882, 55.241722, 0.034205, -0.055019, -0.025653

1495052634.723267, 0.019242, -0.010996, 0.004276, 0.044666, 0.031033, 0.982041, 24.636984, 1.775727, 55.198505, 0.034398, -0.054973, -0.025117

1495052634.737061, 0.017715, -0.009774, 0.002138, 0.029778, 0.031033, 0.982041, 24.607346, 1.736370, 55.210579, 0.034574, -0.054613, -0.024582

1495052634.750498, 0.020464, -0.014355, 0.001222, 0.029778, 0.031033, 0.982041, 24.583635, 1.704884, 55.220238, 0.034777, -0.054317, -0.024045

1495052634.763852, 0.014661, -0.013439, 0.002749, 0.044666, 0.015516, 0.982041, 24.564667, 1.679696, 55.227966, 0.034588, -0.054314, -0.024265

1495052634.777719, 0.015272, -0.015272, 0.006414, 0.044666, 0.015516, 0.966453, 24.590565, 1.679953, 55.210827, 0.034422, -0.054360, -0.024419

1495052634.791013, 0.019548, -0.014050, 0.003971, 0.044666, 0.015516, 0.966453, 24.611282, 1.680159, 55.197113, 0.034308, -0.054379, -0.024604

1495052634.804563, 0.018631, -0.014355, 0.001222, 0.044666, 0.015516, 0.966453, 24.648394, 1.700732, 55.139496, 0.034190, -0.054404, -0.024839

1495052634.817963, 0.022907, -0.014661, 0.002443, 0.044666, 0.015516, 0.966453, 24.678082, 1.717191, 55.093403, 0.034128, -0.054430, -0.025068

1495052634.831285, 0.019853, -0.014661, 0.003971, 0.044666, 0.015516, 0.950865, 24.701832, 1.730357, 55.056526, 0.034029, -0.054471, -0.025273

1495052634.844579, 0.021991, -0.014355, 0.004581, 0.059555, 0.015516, 0.966453, 24.659224, 1.740891, 55.143646, 0.033953, -0.054799, -0.025521

1495052634.857935, 0.019242, -0.014966, 0.003054, 0.059555, 0.015516, 0.966453, 24.625137, 1.749317, 55.213341, 0.033844, -0.055128, -0.025792

1495052634.871211, 0.018021, -0.014661, 0.004887, 0.059555, 0.015516, 0.966453, 24.618404, 1.735650, 55.129154, 0.033719, -0.055446, -0.026023

1495052634.884560, 0.020159, -0.013134, 0.000916, 0.044666, 0.015516, 0.966453, 24.613018, 1.724717, 55.061802, 0.033630, -0.055431, -0.026257

1495052634.897862, 0.021686, -0.013744, -0.000000, 0.044666, 0.015516, 0.966453, 24.608709, 1.715970, 55.007923, 0.033562, -0.055423, -0.026491

1495052634.911392, 0.021686, -0.010996, 0.002443, 0.044666, 0.015516, 1.013217, 24.646336, 1.708972, 55.058113, 0.033485, -0.055340, -0.026711

1495052634.924741, 0.021380, -0.016188, 0.002138, 0.044666, 0.015516, 1.013217, 24.676435, 1.703375, 55.098267, 0.033401, -0.055325, -0.026927

1495052634.938153, 0.022297, -0.012217, 0.000916, 0.044666, 0.031033, 0.997629, 24.659443, 1.658080, 55.083740, 0.033645, -0.055275, -0.026332

1495052634.951896, 0.014355, -0.016188, 0.001833, 0.044666, 0.031033, 0.966453, 24.645849, 1.621844, 55.072121, 0.033803, -0.055312, -0.025655

1495052634.965181, 0.011301, -0.015272, 0.001527, 0.044666, 0.031033, 0.966453, 24.634974, 1.592855, 55.062824, 0.033912, -0.055329, -0.024970

