Using settings file RTIMULib_peter.ini
IMU Name: L3GD20 + LSM303DLHC
IMU Init Succeeded
Recommended Poll Interval: 10mS

Time, gyroX, gyroY, gyroZ, accelX, accelY, accelZ, magX, magY, magZ, phi, theta, psi

1497889710.660520, 0.024740, -0.019242, 0.003360, 0.304000, 0.976000, -0.304000, -9.603499, 48.649076, -0.434181, 1.872747, -0.289055, 2.582936

1497889710.674063, 0.027794, -0.020464, 0.004887, 0.304000, 0.960000, -0.288000, -9.603500, 48.649075, -0.434181, 1.872991, -0.289147, 2.583065

1497889710.687427, 0.026878, -0.016493, 0.003665, 0.304000, 0.960000, -0.288000, -9.620076, 48.646825, -0.297994, 1.873195, -0.289237, 2.583171

1497889710.700754, 0.029016, -0.018326, 0.001833, 0.288000, 0.976000, -0.272000, -9.628008, 48.645613, -0.232599, 1.873027, -0.288952, 2.583571

1497889710.714097, 0.033598, -0.017715, 0.003054, 0.288000, 0.944000, -0.272000, -9.512193, 48.668260, -0.258675, 1.873100, -0.288851, 2.583785

1497889710.727466, 0.028100, -0.018631, 0.002749, 0.288000, 0.944000, -0.272000, -9.438117, 48.682588, -0.275347, 1.873104, -0.288743, 2.583964

1497889710.740835, 0.023824, -0.018937, 0.004276, 0.272000, 0.960000, -0.304000, -9.387730, 48.692264, -0.286683, 1.873590, -0.288226, 2.582894

1497889710.754184, 0.016188, -0.016799, 0.004581, 0.272000, 0.960000, -0.304000, -9.376681, 48.694173, -0.321898, 1.873956, -0.287731, 2.581891

1497889710.767542, 0.029016, -0.016799, 0.002138, 0.320000, 0.960000, -0.288000, -9.368540, 48.695562, -0.347831, 1.874173, -0.288121, 2.582188

1497889710.781005, 0.027489, -0.017715, 0.005192, 0.288000, 0.976000, -0.288000, -9.442997, 48.681674, -0.269544, 1.874278, -0.287871, 2.582032

1497889710.794421, 0.022602, -0.018937, 0.004581, 0.288000, 0.976000, -0.288000, -9.499136, 48.671042, -0.210485, 1.874320, -0.287614, 2.581849

1497889710.807855, 0.024740, -0.016493, -0.000611, 0.288000, 0.960000, -0.288000, -9.542021, 48.662827, -0.165351, 1.874464, -0.287385, 2.581634

1497889710.821220, 0.019548, -0.013439, 0.001833, 0.320000, 0.960000, -0.288000, -9.501539, 48.670789, -0.152840, 1.874534, -0.287791, 2.581906

1497889710.834576, 0.025045, -0.017715, 0.000611, 0.320000, 0.960000, -0.288000, -9.470126, 48.676940, -0.143133, 1.874688, -0.288157, 2.582103

1497889710.847940, 0.024129, -0.020159, 0.003665, 0.304000, 0.960000, -0.288000, -9.455492, 48.679370, -0.246664, 1.874835, -0.288252, 2.582082

1497889710.861290, 0.027184, -0.017104, 0.003054, 0.304000, 0.960000, -0.288000, -9.443869, 48.681142, -0.328681, 1.875008, -0.288349, 2.582154

1497889710.874639, 0.025962, -0.018937, 0.000305, 0.320000, 0.960000, -0.336000, -9.434624, 48.682451, -0.393785, 1.876058, -0.288621, 2.581047

1497889710.888001, 0.026267, -0.015882, 0.004276, 0.304000, 0.976000, -0.304000, -9.473490, 48.675187, -0.356941, 1.876400, -0.288620, 2.580759

1497889710.901350, 0.024435, -0.018326, 0.001527, 0.304000, 0.976000, -0.304000, -9.504234, 48.669399, -0.327789, 1.876717, -0.288576, 2.580450

1497889710.914697, 0.025656, -0.018326, -0.000305, 0.304000, 0.944000, -0.288000, -9.528609, 48.664783, -0.304671, 1.876925, -0.288706, 2.580492

1497889710.928113, 0.025656, -0.021075, 0.001222, 0.320000, 0.976000, -0.272000, -9.574411, 48.655779, -0.306817, 1.876668, -0.289001, 2.581388

1497889710.941476, 0.026878, -0.018021, 0.003971, 0.320000, 0.976000, -0.272000, -9.610629, 48.648627, -0.308513, 1.876423, -0.289337, 2.582310

1497889710.954830, 0.028405, -0.020159, 0.003971, 0.288000, 0.976000, -0.288000, -9.583427, 48.653519, -0.375903, 1.876498, -0.289038, 2.582256

1497889710.968187, 0.028711, -0.022602, -0.000000, 0.288000, 0.976000, -0.288000, -9.561569, 48.657371, -0.430016, 1.876580, -0.288687, 2.582214

1497889710.981553, 0.029322, -0.018631, 0.000305, 0.304000, 0.976000, -0.320000, -9.544021, 48.660413, -0.473435, 1.877255, -0.288601, 2.581501

1497889710.994910, 0.017715, -0.018021, 0.001833, 0.288000, 0.976000, -0.304000, -9.549006, 48.660093, -0.400095, 1.877467, -0.288272, 2.580995

1497889711.008265, 0.022297, -0.013439, 0.002749, 0.288000, 0.976000, -0.304000, -9.552972, 48.659761, -0.341526, 1.877719, -0.287979, 2.580519

1497889711.021614, 0.024740, -0.018937, -0.000611, 0.288000, 0.976000, -0.304000, -9.549537, 48.660616, -0.314649, 1.878014, -0.287629, 2.579975

1497889711.034966, 0.032987, -0.017715, 0.002443, 0.304000, 0.960000, -0.288000, -9.546813, 48.661284, -0.293352, 1.878201, -0.287729, 2.580100

1497889711.048328, 0.023213, -0.018326, 0.002138, 0.304000, 0.960000, -0.288000, -9.544650, 48.661807, -0.276444, 1.878258, -0.287821, 2.580204

1497889711.061679, 0.024129, -0.019853, -0.000916, 0.272000, 0.992000, -0.272000, -9.516392, 48.667289, -0.285547, 1.877838, -0.287155, 2.580478

1497889711.075030, 0.025656, -0.021991, 0.002138, 0.272000, 0.992000, -0.272000, -9.493681, 48.671681, -0.292862, 1.877458, -0.286532, 2.580702

1497889711.088388, 0.019853, -0.014050, -0.001222, 0.288000, 0.960000, -0.256000, -9.504589, 48.669640, -0.277768, 1.876844, -0.286398, 2.581660

1497889711.101759, 0.030543, -0.016188, 0.003360, 0.304000, 0.976000, -0.304000, -9.513357, 48.667995, -0.265635, 1.877226, -0.286429, 2.581316

1497889711.115126, 0.029627, -0.019548, 0.003665, 0.304000, 0.976000, -0.304000, -9.520397, 48.666671, -0.255891, 1.877601, -0.286449, 2.580931

1497889711.128481, 0.025045, -0.022602, -0.000305, 0.272000, 0.976000, -0.288000, -9.560058, 48.659299, -0.161769, 1.877614, -0.285849, 2.580480

1497889711.141835, 0.020769, -0.019548, -0.001527, 0.304000, 0.992000, -0.288000, -9.591581, 48.653287, -0.086889, 1.877471, -0.285765, 2.580619

1497889711.155219, 0.027794, -0.018631, -0.001222, 0.304000, 0.992000, -0.288000, -9.565004, 48.658277, -0.176137, 1.877420, -0.285690, 2.580813

1497889711.168584, 0.027184, -0.017104, 0.003665, 0.288000, 0.976000, -0.288000, -9.543697, 48.662150, -0.247610, 1.877448, -0.285472, 2.580727

1497889711.181940, 0.031460, -0.017410, 0.003665, 0.288000, 0.976000, -0.288000, -9.526621, 48.665171, -0.304834, 1.877533, -0.285257, 2.580669

1497889711.195299, 0.015577, -0.018937, 0.001527, 0.320000, 0.992000, -0.320000, -9.515724, 48.666983, -0.352159, 1.877913, -0.285454, 2.580210

1497889711.208667, 0.011912, -0.018326, 0.003054, 0.272000, 0.960000, -0.272000, -9.506928, 48.668411, -0.390334, 1.877513, -0.285040, 2.580398

1497889711.222023, 0.028711, -0.017715, -0.000000, 0.272000, 0.960000, -0.272000, -9.563873, 48.657365, -0.376009, 1.877335, -0.284598, 2.580616

1497889711.235389, 0.024129, -0.014355, 0.002443, 0.288000, 0.992000, -0.288000, -9.609221, 48.648517, -0.364599, 1.877224, -0.284322, 2.580756

1497889711.248762, 0.019242, -0.015882, 0.002443, 0.288000, 0.976000, -0.320000, -9.645368, 48.641431, -0.355502, 1.877749, -0.284074, 2.579814

1497889711.262222, 0.018631, -0.019242, 0.000305, 0.288000, 0.976000, -0.320000, -9.597123, 48.651311, -0.305618, 1.878268, -0.283791, 2.578801

1497889711.275631, 0.022297, -0.020769, 0.000916, 0.304000, 0.960000, -0.272000, -9.558604, 48.659128, -0.265805, 1.878017, -0.283972, 2.579410

1497889711.289036, 0.033903, -0.017104, 0.003360, 0.304000, 0.960000, -0.272000, -9.534177, 48.663445, -0.341909, 1.877913, -0.284195, 2.580087

1497889711.302489, 0.018021, -0.016188, 0.002443, 0.304000, 0.960000, -0.304000, -9.514481, 48.666830, -0.403214, 1.878203, -0.284341, 2.579788

1497889711.315968, 0.024129, -0.015577, 0.004887, 0.288000, 0.960000, -0.288000, -9.498625, 48.669494, -0.452530, 1.878266, -0.284251, 2.579775

1497889711.329404, 0.024435, -0.017715, 0.006109, 0.288000, 0.960000, -0.288000, -9.494697, 48.671024, -0.361166, 1.878339, -0.284169, 2.579667

1497889711.342814, 0.025962, -0.020464, 0.003360, 0.272000, 0.960000, -0.304000, -9.491550, 48.672123, -0.288490, 1.878748, -0.283722, 2.578715

1497889711.356259, 0.033903, -0.018631, 0.003360, 0.288000, 0.960000, -0.304000, -9.526100, 48.665064, -0.336464, 1.879243, -0.283587, 2.578119

1497889711.369665, 0.028100, -0.016799, 0.003360, 0.288000, 0.960000, -0.304000, -9.553524, 48.659410, -0.374558, 1.879642, -0.283461, 2.577595

1497889711.383060, 0.027489, -0.016493, -0.000000, 0.288000, 0.960000, -0.288000, -9.575327, 48.654881, -0.404852, 1.879714, -0.283324, 2.577635

1497889711.396595, 0.017715, -0.016799, 0.002749, 0.288000, 0.960000, -0.288000, -9.500851, 48.669777, -0.367247, 1.879665, -0.283223, 2.577600

1497889711.410025, 0.028711, -0.016799, 0.002749, 0.288000, 0.960000, -0.288000, -9.441017, 48.681638, -0.337045, 1.879759, -0.283123, 2.577524

1497889711.423447, 0.027794, -0.020464, 0.002138, 0.304000, 0.992000, -0.272000, -9.437441, 48.682750, -0.269936, 1.879378, -0.283173, 2.578262

1497889711.436854, 0.021991, -0.014661, 0.004276, 0.304000, 0.992000, -0.272000, -9.434567, 48.683575, -0.216244, 1.878909, -0.283270, 2.579014

1497889711.450256, 0.029322, -0.018937, 0.003665, 0.288000, 0.976000, -0.288000, -9.432260, 48.684194, -0.173287, 1.878943, -0.283092, 2.578844

1497889711.464007, 0.026573, -0.019853, 0.003360, 0.288000, 0.976000, -0.304000, -9.493414, 48.672195, -0.201918, 1.879256, -0.282884, 2.578201

1497889711.477465, 0.024435, -0.016188, 0.000611, 0.288000, 0.976000, -0.304000, -9.542030, 48.662588, -0.224686, 1.879509, -0.282660, 2.577672

1497889711.490897, 0.021380, -0.017104, 0.001833, 0.288000, 0.992000, -0.288000, -9.528619, 48.665010, -0.265569, 1.879330, -0.282403, 2.577738

1497889711.504303, 0.024129, -0.014355, 0.002443, 0.304000, 0.976000, -0.272000, -9.517801, 48.666936, -0.298530, 1.878973, -0.282576, 2.578526

1497889711.517705, 0.023213, -0.018326, 0.004581, 0.304000, 0.976000, -0.272000, -9.509089, 48.668468, -0.325063, 1.878628, -0.282755, 2.579252

1497889711.531076, 0.030543, -0.020159, 0.003665, 0.288000, 0.944000, -0.352000, -9.491284, 48.671800, -0.346002, 1.880091, -0.282677, 2.577109

1497889711.544437, 0.025351, -0.019242, 0.000305, 0.288000, 0.944000, -0.352000, -9.477010, 48.674459, -0.362786, 1.881449, -0.282560, 2.575038

1497889711.557806, 0.023824, -0.016799, 0.002138, 0.304000, 0.960000, -0.304000, -9.465572, 48.676582, -0.376234, 1.881745, -0.282731, 2.574798

1497889711.571186, 0.021686, -0.016799, 0.003054, 0.304000, 0.976000, -0.304000, -9.456409, 48.678279, -0.387006, 1.881915, -0.282829, 2.574639

1497889711.584542, 0.025351, -0.016188, 0.003971, 0.304000, 0.976000, -0.304000, -9.449071, 48.679634, -0.395632, 1.882127, -0.282938, 2.574491

1497889711.597898, 0.027184, -0.019853, 0.003971, 0.304000, 0.992000, -0.288000, -9.447294, 48.679747, -0.423270, 1.881986, -0.282983, 2.574888

1497889711.611251, 0.023824, -0.018326, -0.000000, 0.288000, 0.976000, -0.288000, -9.445875, 48.679825, -0.445330, 1.881877, -0.282770, 2.575013

1497889711.624616, 0.022297, -0.018021, 0.002749, 0.288000, 0.976000, -0.288000, -9.444740, 48.679881, -0.462948, 1.881753, -0.282597, 2.575138

1497889711.637985, 0.030849, -0.017410, 0.002443, 0.320000, 0.976000, -0.304000, -9.372369, 48.694112, -0.436390, 1.882047, -0.282974, 2.575202

1497889711.651355, 0.029932, -0.018937, 0.003360, 0.320000, 0.976000, -0.304000, -9.314038, 48.705490, -0.414989, 1.882329, -0.283349, 2.575204

1497889711.664729, 0.023518, -0.020769, 0.003665, 0.288000, 0.976000, -0.288000, -9.399378, 48.689257, -0.395211, 1.882223, -0.283164, 2.575222

1497889711.678114, 0.023213, -0.019242, 0.001833, 0.304000, 0.992000, -0.272000, -9.467154, 48.676249, -0.379498, 1.881727, -0.283217, 2.576110

1497889711.691479, 0.025656, -0.016799, 0.002443, 0.304000, 0.992000, -0.272000, -9.521059, 48.665830, -0.366997, 1.881264, -0.283287, 2.577021

1497889711.704844, 0.027184, -0.019548, 0.000611, 0.272000, 0.976000, -0.288000, -9.504887, 48.668729, -0.400250, 1.881219, -0.282775, 2.576823

1497889711.718199, 0.024129, -0.018326, 0.001222, 0.320000, 0.976000, -0.304000, -9.491950, 48.671028, -0.426843, 1.881437, -0.283130, 2.576886

1497889711.731573, 0.029322, -0.019242, -0.000611, 0.320000, 0.976000, -0.304000, -9.495498, 48.670130, -0.449673, 1.881721, -0.283452, 2.576960

1497889711.744963, 0.031765, -0.019242, 0.001527, 0.304000, 0.976000, -0.288000, -9.498352, 48.669400, -0.468048, 1.881732, -0.283537, 2.577299

1497889711.758332, 0.025962, -0.021380, 0.002749, 0.304000, 0.976000, -0.288000, -9.500645, 48.668808, -0.482820, 1.881676, -0.283628, 2.577611

1497889711.771691, 0.022297, -0.020769, 0.002138, 0.304000, 0.960000, -0.256000, -9.507469, 48.667797, -0.449202, 1.881054, -0.283874, 2.578870

1497889711.785116, 0.025351, -0.019853, 0.004581, 0.304000, 0.992000, -0.304000, -9.512889, 48.666978, -0.422490, 1.881207, -0.283875, 2.578706

1497889711.798565, 0.023824, -0.019242, 0.001222, 0.304000, 0.992000, -0.304000, -9.550262, 48.659659, -0.422272, 1.881333, -0.283837, 2.578581

1497889711.811946, 0.020159, -0.019548, 0.000305, 0.272000, 0.976000, -0.272000, -9.579998, 48.653815, -0.422099, 1.880885, -0.283342, 2.578929

1497889711.825326, 0.019242, -0.018326, 0.002443, 0.288000, 0.960000, -0.304000, -9.603683, 48.649147, -0.421960, 1.881139, -0.283204, 2.578425

1497889711.838690, 0.025962, -0.018021, 0.003665, 0.288000, 0.960000, -0.304000, -9.614657, 48.646573, -0.466474, 1.881476, -0.283084, 2.577965

1497889711.852055, 0.028711, -0.018021, -0.000305, 0.288000, 0.960000, -0.304000, -9.623488, 48.644470, -0.502315, 1.881837, -0.282917, 2.577556

1497889711.865428, 0.030849, -0.018937, 0.002138, 0.288000, 0.960000, -0.304000, -9.586960, 48.652433, -0.423335, 1.882226, -0.282781, 2.577067

1497889711.878781, 0.029627, -0.016493, 0.001222, 0.304000, 0.976000, -0.304000, -9.557729, 48.658693, -0.360177, 1.882486, -0.282855, 2.576899

1497889711.892148, 0.022297, -0.021991, 0.001222, 0.304000, 0.992000, -0.288000, -9.534338, 48.663629, -0.309668, 1.882278, -0.282858, 2.577191

1497889711.905506, 0.026267, -0.018631, 0.004276, 0.304000, 0.992000, -0.288000, -9.512828, 48.667963, -0.289306, 1.882117, -0.282911, 2.577485

1497889711.918868, 0.018937, -0.017104, 0.002443, 0.288000, 0.976000, -0.288000, -9.495754, 48.671391, -0.273145, 1.881941, -0.282733, 2.577468

1497889711.932235, 0.035736, -0.016493, 0.004581, 0.288000, 0.960000, -0.304000, -9.444114, 48.681116, -0.325403, 1.882386, -0.282640, 2.576880

1497889711.945599, 0.028711, -0.017104, 0.003054, 0.288000, 0.960000, -0.304000, -9.402550, 48.688862, -0.367448, 1.882730, -0.282527, 2.576312

1497889711.958951, 0.024129, -0.018326, 0.003054, 0.288000, 0.960000, -0.288000, -9.369135, 48.695036, -0.401238, 1.882706, -0.282439, 2.576255

1497889711.972311, 0.021380, -0.018021, -0.000000, 0.288000, 0.960000, -0.288000, -9.409008, 48.687940, -0.321472, 1.882641, -0.282316, 2.576180

1497889711.985660, 0.011606, -0.019242, 0.000611, 0.304000, 0.960000, -0.256000, -9.440919, 48.682142, -0.257589, 1.881852, -0.282573, 2.577337

1497889711.999024, 0.023213, -0.017715, 0.002749, 0.304000, 0.976000, -0.288000, -9.453192, 48.679915, -0.226514, 1.881743, -0.282695, 2.577507

1497889712.012411, 0.031154, -0.020464, 0.002443, 0.304000, 0.976000, -0.288000, -9.462919, 48.678133, -0.201879, 1.881751, -0.282800, 2.577627

1497889712.025780, 0.026878, -0.015577, 0.000916, 0.288000, 0.976000, -0.288000, -9.470643, 48.676708, -0.182313, 1.881680, -0.282611, 2.577562

1497889712.039140, 0.033292, -0.018326, 0.002443, 0.304000, 0.976000, -0.320000, -9.471735, 48.676185, -0.252069, 1.882302, -0.282672, 2.576770

1497889712.052497, 0.024129, -0.019242, 0.001833, 0.304000, 0.976000, -0.320000, -9.472599, 48.675694, -0.308164, 1.882795, -0.282721, 2.576021

1497889712.065853, 0.028711, -0.018631, 0.002138, 0.304000, 0.976000, -0.304000, -9.472876, 48.675750, -0.290225, 1.883040, -0.282799, 2.575763

1497889712.079203, 0.024435, -0.016799, 0.002138, 0.304000, 0.976000, -0.304000, -9.473099, 48.675791, -0.275775, 1.883217, -0.282883, 2.575524

1497889712.092721, 0.020769, -0.019242, 0.003665, 0.320000, 0.976000, -0.320000, -9.473277, 48.675821, -0.264151, 1.883653, -0.283234, 2.575004

1497889712.106096, 0.020769, -0.015882, 0.001833, 0.304000, 0.976000, -0.304000, -9.438163, 48.682805, -0.232080, 1.883767, -0.283309, 2.574752

1497889712.119463, 0.030543, -0.019242, 0.006414, 0.304000, 0.976000, -0.304000, -9.410256, 48.688322, -0.206597, 1.884024, -0.283426, 2.574414

1497889712.132834, 0.018326, -0.015577, 0.003971, 0.304000, 0.960000, -0.304000, -9.423384, 48.685575, -0.250723, 1.884194, -0.283607, 2.574097

1497889712.146235, 0.021380, -0.016493, 0.002749, 0.304000, 0.960000, -0.272000, -9.452269, 48.679781, -0.286089, 1.883800, -0.283834, 2.574821

1497889712.159640, 0.028711, -0.017410, 0.004276, 0.304000, 0.960000, -0.272000, -9.475413, 48.675106, -0.314433, 1.883515, -0.284072, 2.575541

1497889712.173031, 0.027184, -0.013439, 0.005803, 0.304000, 0.960000, -0.352000, -9.437613, 48.681971, -0.381291, 1.884698, -0.284215, 2.573901

1497889712.186407, 0.018631, -0.015577, 0.002443, 0.304000, 0.960000, -0.352000, -9.407094, 48.687426, -0.435241, 1.885748, -0.284302, 2.572299

1497889712.199763, 0.030543, -0.020464, 0.002138, 0.288000, 0.960000, -0.320000, -9.382499, 48.691763, -0.478701, 1.886363, -0.284107, 2.571352

1497889712.213151, 0.020769, -0.020769, 0.001833, 0.304000, 0.960000, -0.288000, -9.398489, 48.689181, -0.424604, 1.886235, -0.284259, 2.571639

1497889712.226570, 0.017715, -0.020464, 0.001222, 0.304000, 0.960000, -0.288000, -9.411182, 48.687085, -0.381635, 1.886068, -0.284402, 2.571902

1497889712.239999, 0.029322, -0.016799, 0.003054, 0.288000, 0.992000, -0.288000, -9.414088, 48.686459, -0.389789, 1.885861, -0.284128, 2.572120

1497889712.253393, 0.022907, -0.018937, 0.004581, 0.320000, 0.960000, -0.288000, -9.416398, 48.685960, -0.396273, 1.885776, -0.284615, 2.572620

1497889712.266791, 0.027184, -0.017410, 0.000305, 0.320000, 0.960000, -0.288000, -9.418237, 48.685562, -0.401436, 1.885738, -0.285046, 2.573151

1497889712.280202, 0.016493, -0.017104, -0.001833, 0.288000, 0.960000, -0.288000, -9.388941, 48.691507, -0.364978, 1.885544, -0.284851, 2.573178

1497889712.293588, 0.027794, -0.015882, 0.000916, 0.288000, 0.960000, -0.288000, -9.365365, 48.696258, -0.335646, 1.885501, -0.284699, 2.573180

1497889712.307135, 0.024129, -0.017715, 0.001527, 0.288000, 0.976000, -0.256000, -9.410192, 48.687910, -0.289727, 1.884720, -0.284549, 2.574274

1497889712.320529, 0.026267, -0.021686, 0.001222, 0.304000, 0.960000, -0.272000, -9.445954, 48.681189, -0.253082, 1.884396, -0.284717, 2.574909

1497889712.333931, 0.038790, -0.018021, 0.004581, 0.304000, 0.960000, -0.272000, -9.474499, 48.675785, -0.223823, 1.884233, -0.284938, 2.575557

1497889712.347383, 0.046426, -0.016493, 0.004276, 0.320000, 0.976000, -0.288000, -9.538140, 48.662773, -0.326644, 1.884390, -0.285329, 2.576096

1497889712.360826, 0.029627, -0.020159, 0.003054, 0.304000, 0.976000, -0.288000, -9.588610, 48.652237, -0.408251, 1.884327, -0.285393, 2.576429

1497889712.374272, 0.028405, -0.020464, -0.001222, 0.304000, 0.976000, -0.288000, -9.500423, 48.669120, -0.454985, 1.884246, -0.285400, 2.576767

1497889712.387713, 0.003971, -0.018326, 0.001222, 0.304000, 0.976000, -0.288000, -9.429392, 48.682565, -0.492610, 1.883839, -0.285446, 2.577113

1497889712.401148, 0.012828, -0.018326, 0.001527, 0.304000, 0.976000, -0.288000, -9.372256, 48.693282, -0.522864, 1.883557, -0.285496, 2.577448

1497889712.414580, 0.024740, -0.020159, 0.001527, 0.320000, 0.992000, -0.288000, -9.342180, 48.699884, -0.439597, 1.883362, -0.285743, 2.577988

1497889712.428025, 0.025962, -0.019548, -0.000916, 0.320000, 0.976000, -0.304000, -9.318121, 48.705048, -0.373049, 1.883565, -0.286006, 2.577918

1497889712.441492, 0.025045, -0.023824, 0.000916, 0.320000, 0.976000, -0.304000, -9.388448, 48.692063, -0.297236, 1.883770, -0.286269, 2.577765

1497889712.454991, 0.013744, -0.022297, 0.000611, 0.288000, 0.976000, -0.272000, -9.444176, 48.681614, -0.237127, 1.883208, -0.286013, 2.578154

1497889712.468418, 0.029322, -0.018937, 0.002749, 0.288000, 0.976000, -0.288000, -9.488421, 48.673219, -0.189383, 1.883155, -0.285768, 2.578039

1497889712.481813, 0.020159, -0.018631, 0.003360, 0.288000, 0.976000, -0.288000, -9.446048, 48.680906, -0.299642, 1.882982, -0.285538, 2.577985

1497889712.495191, 0.025351, -0.019853, 0.003360, 0.288000, 0.960000, -0.272000, -9.411916, 48.686890, -0.388353, 1.882668, -0.285421, 2.578406

1497889712.508564, 0.029016, -0.021380, 0.003971, 0.288000, 0.944000, -0.272000, -9.409228, 48.686973, -0.439654, 1.882504, -0.285389, 2.578751

1497889712.521928, 0.021686, -0.017104, -0.000305, 0.288000, 0.944000, -0.272000, -9.407053, 48.687003, -0.481042, 1.882227, -0.285322, 2.579190

1497889712.535299, 0.027184, -0.014355, -0.000000, 0.304000, 0.976000, -0.304000, -9.405295, 48.687001, -0.514377, 1.882447, -0.285339, 2.579050

1497889712.548673, 0.035125, -0.019548, 0.001833, 0.304000, 0.976000, -0.304000, -9.427962, 48.683779, -0.389212, 1.882788, -0.285357, 2.578766

1497889712.562041, 0.030849, -0.015577, 0.000916, 0.304000, 0.976000, -0.288000, -9.445948, 48.680986, -0.289645, 1.882750, -0.285410, 2.578983

1497889712.575418, 0.031154, -0.020769, -0.000611, 0.304000, 0.960000, -0.272000, -9.448381, 48.680200, -0.338399, 1.882523, -0.285541, 2.579603

1497889712.588783, 0.025351, -0.015882, 0.003665, 0.304000, 0.960000, -0.272000, -9.450323, 48.679536, -0.377454, 1.882211, -0.285742, 2.580283

1497889712.602149, 0.010079, -0.021991, 0.002443, 0.320000, 0.960000, -0.272000, -9.451875, 48.678982, -0.408733, 1.881738, -0.286195, 2.581116

1497889712.615510, 0.029322, -0.021686, 0.001527, 0.320000, 0.976000, -0.272000, -9.474160, 48.674780, -0.392890, 1.881435, -0.286544, 2.582011

1497889712.628885, 0.023824, -0.021686, -0.002443, 0.272000, 0.976000, -0.272000, -9.492136, 48.671379, -0.380109, 1.881038, -0.285949, 2.582210

1497889712.642244, 0.023518, -0.017715, 0.000305, 0.304000, 0.960000, -0.304000, -9.460183, 48.677698, -0.367265, 1.881340, -0.286027, 2.581814

1497889712.656106, 0.019853, -0.018021, 0.001222, 0.304000, 0.960000, -0.304000, -9.434798, 48.682701, -0.357062, 1.881602, -0.286111, 2.581393

1497889712.669549, 0.029322, -0.018631, -0.000916, 0.304000, 0.976000, -0.304000, -9.414603, 48.686669, -0.348945, 1.881879, -0.286083, 2.581053

1497889712.682964, 0.057421, -0.015577, 0.004276, 0.320000, 0.976000, -0.288000, -9.394281, 48.690319, -0.385484, 1.882221, -0.286453, 2.581481

1497889712.696373, -0.013744, -0.020159, -0.000305, 0.320000, 0.976000, -0.288000, -9.378032, 48.693211, -0.414692, 1.881632, -0.286740, 2.581872

1497889712.709758, 0.034514, -0.016188, -0.000000, 0.304000, 0.992000, -0.320000, -9.382045, 48.692218, -0.439733, 1.882169, -0.286616, 2.581189

1497889712.723109, 0.022602, -0.017410, 0.001833, 0.272000, 0.976000, -0.256000, -9.385273, 48.691410, -0.459895, 1.881418, -0.286130, 2.582004

1497889712.736490, 0.032070, -0.018937, 0.003054, 0.272000, 0.976000, -0.256000, -9.387869, 48.690754, -0.476108, 1.880815, -0.285662, 2.582789

1497889712.749879, 0.026878, -0.019548, 0.001527, 0.304000, 0.960000, -0.272000, -9.446754, 48.679854, -0.423019, 1.880568, -0.285819, 2.583396

1497889712.763236, 0.038179, -0.019853, 0.000916, 0.304000, 0.960000, -0.272000, -9.493648, 48.671079, -0.380724, 1.880474, -0.285963, 2.583980

1497889712.776613, 0.024740, -0.015882, 0.000305, 0.288000, 0.976000, -0.288000, -9.436605, 48.682278, -0.366845, 1.880401, -0.285702, 2.583896

1497889712.790053, 0.040928, -0.015577, 0.004276, 0.304000, 0.960000, -0.288000, -9.391402, 48.691100, -0.355849, 1.880641, -0.285871, 2.583941

1497889712.803568, 0.000611, -0.018937, -0.000611, 0.304000, 0.960000, -0.288000, -9.355512, 48.698071, -0.347120, 1.880353, -0.285961, 2.583940

1497889712.817031, 0.004887, -0.018021, -0.001527, 0.288000, 0.976000, -0.288000, -9.353373, 48.698199, -0.384785, 1.880029, -0.285668, 2.583813

1497889712.830436, 0.031154, -0.018326, 0.001222, 0.304000, 0.960000, -0.272000, -9.351645, 48.698282, -0.415142, 1.879850, -0.285824, 2.584375

1497889712.843821, 0.019548, -0.016799, 0.002749, 0.304000, 0.960000, -0.272000, -9.420894, 48.685418, -0.353619, 1.879517, -0.286002, 2.584926

1497889712.857224, 0.016493, -0.014355, 0.003360, 0.304000, 0.960000, -0.304000, -9.476274, 48.675002, -0.304396, 1.879749, -0.286130, 2.584473

1497889712.870595, 0.015577, -0.015577, 0.002749, 0.304000, 0.960000, -0.304000, -9.520565, 48.666589, -0.265014, 1.879967, -0.286243, 2.584009

1497889712.883957, 0.030543, -0.018326, 0.001222, 0.288000, 0.992000, -0.256000, -9.563688, 48.657678, -0.338453, 1.879294, -0.285976, 2.585050

1497889712.897336, 0.050702, -0.016493, 0.001527, 0.304000, 0.944000, -0.288000, -9.597971, 48.650485, -0.396872, 1.879775, -0.286187, 2.585102

1497889712.910701, -0.007025, -0.018021, 0.002443, 0.304000, 0.944000, -0.288000, -9.668560, 48.636086, -0.445392, 1.879498, -0.286400, 2.585187

1497889712.924102, 0.045815, -0.017410, 0.002749, 0.288000, 0.960000, -0.288000, -9.597387, 48.649805, -0.484633, 1.879821, -0.286234, 2.585114

1497889712.937501, 0.035430, -0.018631, 0.001222, 0.288000, 0.976000, -0.288000, -9.540173, 48.660733, -0.516167, 1.879913, -0.285969, 2.585110

1497889712.950880, 0.021075, -0.016188, 0.002749, 0.288000, 0.976000, -0.288000, -9.549497, 48.659697, -0.435067, 1.879807, -0.285738, 2.585081

1497889712.964256, 0.027794, -0.021075, -0.000611, 0.272000, 0.976000, -0.272000, -9.556956, 48.658770, -0.370020, 1.879496, -0.285184, 2.585237

1497889712.977623, 0.016799, -0.021686, 0.002138, 0.272000, 0.976000, -0.272000, -9.562924, 48.657967, -0.317877, 1.879053, -0.284673, 2.585337

1497889712.990992, 0.020159, -0.018326, 0.001222, 0.320000, 0.960000, -0.256000, -9.579411, 48.654986, -0.274786, 1.878458, -0.285188, 2.586592

1497889713.004366, 0.025351, -0.020769, -0.001222, 0.288000, 0.976000, -0.272000, -9.592499, 48.652588, -0.240561, 1.878144, -0.284935, 2.586895

1497889713.017742, 0.021991, -0.015882, 0.002749, 0.288000, 0.976000, -0.272000, -9.525568, 48.664982, -0.362396, 1.877779, -0.284757, 2.587296

1497889713.031112, 0.032987, -0.018937, 0.004276, 0.288000, 0.976000, -0.288000, -9.471850, 48.674641, -0.460079, 1.877884, -0.284558, 2.587166

1497889713.044489, 0.009163, -0.013439, 0.004887, 0.320000, 0.944000, -0.272000, -9.428765, 48.682202, -0.538361, 1.877546, -0.285185, 2.587966

1497889713.057863, 0.034208, -0.018021, 0.004276, 0.320000, 0.944000, -0.272000, -9.444646, 48.678624, -0.581780, 1.877559, -0.285774, 2.588727

1497889713.071235, 0.025045, -0.020159, 0.003054, 0.288000, 0.960000, -0.288000, -9.457436, 48.675710, -0.616763, 1.877658, -0.285614, 2.588577

1497889713.084612, -0.008247, -0.018631, 0.001222, 0.288000, 0.960000, -0.288000, -9.495121, 48.669790, -0.492396, 1.877312, -0.285440, 2.588390

1497889713.098002, 0.042150, -0.018937, 0.003665, 0.288000, 0.992000, -0.272000, -9.525078, 48.664838, -0.393373, 1.877155, -0.285174, 2.588814

1497889713.111385, 0.005498, -0.015882, 0.002749, 0.288000, 0.960000, -0.288000, -9.548922, 48.660738, -0.314453, 1.876991, -0.285039, 2.588555

1497889713.124758, 0.028405, -0.017104, 0.001527, 0.288000, 0.960000, -0.288000, -9.498152, 48.670375, -0.357750, 1.877133, -0.284885, 2.588299

1497889713.138131, 0.021686, -0.021686, 0.002749, 0.272000, 0.976000, -0.304000, -9.457574, 48.678010, -0.392343, 1.877420, -0.284336, 2.587296

1497889713.151496, 0.027489, -0.018937, 0.002443, 0.304000, 0.976000, -0.320000, -9.387195, 48.691385, -0.421699, 1.878055, -0.284363, 2.586373

1497889713.164870, 0.036652, -0.018326, 0.006109, 0.304000, 0.976000, -0.320000, -9.330507, 48.702070, -0.445337, 1.878799, -0.284437, 2.585452

1497889713.178241, 0.019853, -0.017104, 0.003054, 0.288000, 0.976000, -0.304000, -9.284909, 48.710606, -0.464345, 1.879006, -0.284210, 2.584805

1497889713.191616, 0.039706, -0.016799, 0.001833, 0.288000, 0.976000, -0.304000, -9.283587, 48.710935, -0.456144, 1.879467, -0.283972, 2.584174

1497889713.204992, 0.014661, -0.018326, 0.003360, 0.304000, 0.976000, -0.320000, -9.282534, 48.711197, -0.449613, 1.879892, -0.284019, 2.583291

1497889713.218362, -0.003360, -0.017104, 0.001222, 0.288000, 0.976000, -0.288000, -9.282625, 48.711603, -0.401112, 1.879467, -0.283803, 2.583161

1497889713.231725, 0.021380, -0.015882, 0.002138, 0.288000, 0.976000, -0.288000, -9.282691, 48.711892, -0.362562, 1.879372, -0.283607, 2.583019

1497889713.245146, 0.013134, -0.017104, -0.000916, 0.304000, 0.976000, -0.288000, -9.282739, 48.712102, -0.331881, 1.879175, -0.283665, 2.583101

1497889713.258596, 0.037568, -0.017104, 0.001833, 0.304000, 0.976000, -0.320000, -9.240001, 48.720089, -0.351536, 1.879903, -0.283704, 2.582181

1497889713.272006, 0.009774, -0.019242, 0.001527, 0.304000, 0.976000, -0.320000, -9.205569, 48.726490, -0.367366, 1.880256, -0.283729, 2.581249

1497889713.285437, 0.025962, -0.018021, 0.000611, 0.304000, 0.960000, -0.304000, -9.285812, 48.711333, -0.357808, 1.880608, -0.283853, 2.580791

1497889713.298906, 0.024435, -0.018937, -0.000611, 0.304000, 0.960000, -0.304000, -9.349949, 48.699118, -0.350165, 1.880935, -0.283956, 2.580354

1497889713.312334, 0.013744, -0.017410, 0.000916, 0.288000, 0.992000, -0.288000, -9.401221, 48.689290, -0.344054, 1.880627, -0.283660, 2.580367

1497889713.325776, 0.034819, -0.019548, 0.004276, 0.320000, 0.976000, -0.304000, -9.410907, 48.687465, -0.337362, 1.881007, -0.284029, 2.580241

1497889713.339187, 0.019242, -0.018631, 0.003360, 0.320000, 0.976000, -0.304000, -9.418579, 48.686018, -0.332061, 1.881168, -0.284384, 2.580134

1497889713.352623, 0.019853, -0.017104, 0.001833, 0.320000, 0.960000, -0.304000, -9.338726, 48.700766, -0.414504, 1.881423, -0.284804, 2.580001

1497889713.366086, 0.025656, -0.015882, 0.005192, 0.304000, 0.960000, -0.288000, -9.274413, 48.712445, -0.480864, 1.881445, -0.285003, 2.580151

1497889713.379510, 0.016188, -0.018937, 0.004581, 0.304000, 0.960000, -0.288000, -9.222686, 48.721709, -0.534213, 1.881351, -0.285177, 2.580277

1497889713.392958, 0.043371, -0.017715, 0.002443, 0.336000, 0.960000, -0.304000, -9.229502, 48.721076, -0.470435, 1.881920, -0.285875, 2.580351

1497889713.406376, 0.010996, -0.018937, 0.002443, 0.336000, 0.960000, -0.304000, -9.234952, 48.720510, -0.419337, 1.882054, -0.286553, 2.580377

1497889713.419811, 0.043371, -0.018326, 0.002749, 0.304000, 0.976000, -0.320000, -9.252546, 48.717521, -0.376626, 1.882807, -0.286539, 2.579512

1497889713.433230, 0.028100, -0.020159, 0.003054, 0.288000, 0.960000, -0.288000, -9.266509, 48.715117, -0.342714, 1.882843, -0.286362, 2.579286

1497889713.446647, 0.035125, -0.018631, 0.002749, 0.288000, 0.960000, -0.288000, -9.277608, 48.713187, -0.315747, 1.882965, -0.286190, 2.579072

1497889713.460078, 0.020769, -0.015882, 0.001833, 0.288000, 0.944000, -0.288000, -9.295098, 48.709553, -0.358968, 1.882978, -0.286104, 2.578859

1497889713.473475, 0.021686, -0.017715, 0.002749, 0.304000, 0.976000, -0.288000, -9.309155, 48.706600, -0.393723, 1.882827, -0.286156, 2.579052

1497889713.486910, 0.029322, -0.020159, 0.000611, 0.304000, 0.976000, -0.288000, -9.297855, 48.708698, -0.401143, 1.882788, -0.286170, 2.579219

1497889713.500337, 0.016799, -0.014355, 0.002138, 0.304000, 0.960000, -0.304000, -9.288757, 48.710384, -0.407116, 1.882958, -0.286279, 2.578875

1497889713.513759, 0.028405, -0.014966, -0.001527, 0.304000, 0.976000, -0.288000, -9.281442, 48.711738, -0.411919, 1.882882, -0.286285, 2.579123

1497889713.527212, 0.037874, -0.017410, 0.001222, 0.288000, 0.976000, -0.288000, -9.307121, 48.707165, -0.371303, 1.882942, -0.286022, 2.579062

1497889713.540645, 0.010996, -0.019853, 0.003360, 0.288000, 0.976000, -0.304000, -9.327546, 48.703493, -0.338986, 1.882962, -0.285754, 2.578441

1497889713.554075, 0.025962, -0.020769, 0.002138, 0.288000, 0.976000, -0.304000, -9.321192, 48.704587, -0.356120, 1.883180, -0.285473, 2.577834

1497889713.567549, 0.022297, -0.016493, 0.001833, 0.288000, 0.960000, -0.288000, -9.316110, 48.705458, -0.369820, 1.883118, -0.285317, 2.577732

1497889713.580984, 0.033903, -0.018326, 0.002443, 0.320000, 0.992000, -0.288000, -9.312045, 48.706150, -0.380775, 1.883047, -0.285586, 2.578235

1497889713.594413, 0.030849, -0.020464, 0.002138, 0.320000, 0.992000, -0.288000, -9.277444, 48.712835, -0.370145, 1.882944, -0.285837, 2.578682

1497889713.607980, 0.028711, -0.016799, 0.002138, 0.288000, 0.976000, -0.288000, -9.249524, 48.718208, -0.361569, 1.882885, -0.285596, 2.578602

1497889713.621427, 0.029016, -0.014355, 0.003665, 0.272000, 0.976000, -0.304000, -9.292254, 48.710291, -0.331465, 1.883129, -0.285070, 2.577772

1497889713.634850, 0.018021, -0.019242, 0.002749, 0.272000, 0.976000, -0.304000, -9.326287, 48.703943, -0.307483, 1.883240, -0.284524, 2.576898

1497889713.648264, 0.015882, -0.020464, 0.000611, 0.272000, 0.960000, -0.288000, -9.353416, 48.698858, -0.288362, 1.883105, -0.284057, 2.576469

1497889713.661691, 0.025656, -0.018631, 0.000305, 0.272000, 0.960000, -0.288000, -9.367902, 48.695613, -0.357645, 1.883093, -0.283603, 2.576126

1497889713.675300, 0.030849, -0.016799, 0.000916, 0.288000, 0.976000, -0.288000, -9.379436, 48.692956, -0.412876, 1.883059, -0.283393, 2.576188

1497889713.688863, 0.027184, -0.017104, 0.001833, 0.288000, 0.960000, -0.272000, -9.357703, 48.696723, -0.459136, 1.882761, -0.283312, 2.576710

1497889713.702362, 0.018631, -0.018021, 0.000916, 0.288000, 0.960000, -0.272000, -9.340199, 48.699718, -0.496380, 1.882357, -0.283217, 2.577233

1497889713.715782, 0.021075, -0.017715, 0.002138, 0.288000, 0.976000, -0.304000, -9.326118, 48.702102, -0.526328, 1.882509, -0.283000, 2.576804

1497889713.729182, 0.029627, -0.019853, 0.000305, 0.288000, 0.976000, -0.304000, -9.334902, 48.700639, -0.505606, 1.882776, -0.282755, 2.576355

1497889713.742574, 0.028100, -0.019242, 0.000611, 0.288000, 0.976000, -0.304000, -9.341901, 48.699466, -0.489093, 1.883016, -0.282521, 2.575912

1497889713.755952, 0.035125, -0.014050, 0.002749, 0.288000, 0.992000, -0.304000, -9.333482, 48.701612, -0.432823, 1.883234, -0.282263, 2.575576

1497889713.769333, 0.029932, -0.018631, -0.000916, 0.288000, 0.992000, -0.304000, -9.399876, 48.689220, -0.387928, 1.883391, -0.281945, 2.575201

1497889713.782696, 0.021686, -0.018021, 0.001527, 0.288000, 0.960000, -0.288000, -9.452727, 48.679258, -0.352177, 1.883319, -0.281851, 2.575178

1497889713.796127, 0.019548, -0.017410, 0.004276, 0.288000, 0.976000, -0.288000, -9.398968, 48.689218, -0.409505, 1.883132, -0.281717, 2.575246

1497889713.809572, 0.023824, -0.018937, 0.003054, 0.288000, 0.976000, -0.288000, -9.355772, 48.697128, -0.455551, 1.883008, -0.281565, 2.575310

1497889713.822958, 0.020464, -0.020159, 0.002138, 0.304000, 0.976000, -0.304000, -9.321094, 48.703418, -0.492504, 1.883148, -0.281660, 2.575115

1497889713.836344, 0.031154, -0.021075, 0.001222, 0.288000, 0.960000, -0.304000, -9.334393, 48.701211, -0.457657, 1.883521, -0.281528, 2.574568

1497889713.849726, 0.020464, -0.017104, 0.002749, 0.288000, 0.960000, -0.304000, -9.345017, 48.699427, -0.429808, 1.883734, -0.281433, 2.574063

1497889713.863104, 0.014050, -0.014661, -0.000000, 0.304000, 0.960000, -0.304000, -9.308025, 48.706890, -0.384488, 1.883846, -0.281609, 2.573821

1497889713.876475, 0.033292, -0.018021, 0.003971, 0.304000, 0.960000, -0.304000, -9.278700, 48.712755, -0.348571, 1.884224, -0.281817, 2.573489

1497889713.889841, 0.012217, -0.021991, -0.000000, 0.304000, 0.960000, -0.304000, -9.255410, 48.717381, -0.320053, 1.884328, -0.281955, 2.573101

1497889713.903215, 0.027489, -0.020159, 0.001527, 0.304000, 0.976000, -0.304000, -9.265987, 48.715224, -0.341553, 1.884532, -0.282034, 2.572832

1497889713.916588, 0.021991, -0.021991, 0.000916, 0.304000, 0.976000, -0.304000, -9.274517, 48.713477, -0.358896, 1.884665, -0.282097, 2.572563

1497889713.929960, 0.027489, -0.023213, -0.001833, 0.304000, 0.960000, -0.288000, -9.321555, 48.704837, -0.309474, 1.884663, -0.282233, 2.572703

1497889713.943328, 0.010690, -0.017104, 0.005498, 0.304000, 0.944000, -0.304000, -9.359388, 48.697817, -0.269710, 1.884824, -0.282536, 2.572303

1497889713.956708, 0.036346, -0.016188, 0.005192, 0.304000, 0.944000, -0.304000, -9.389785, 48.692132, -0.237752, 1.885315, -0.282833, 2.571916

1497889713.970075, 0.033903, -0.017410, 0.002443, 0.304000, 0.976000, -0.320000, -9.368131, 48.696329, -0.232241, 1.885870, -0.282891, 2.571193

1497889713.983438, 0.031460, -0.018631, 0.002749, 0.304000, 0.976000, -0.320000, -9.350909, 48.699660, -0.227858, 1.886386, -0.282947, 2.570458

1497889713.996820, 0.019853, -0.020159, 0.006720, 0.320000, 0.976000, -0.304000, -9.346926, 48.700223, -0.267362, 1.886459, -0.283359, 2.570443

1497889714.010190, 0.009468, -0.019853, 0.005498, 0.320000, 0.944000, -0.304000, -9.343730, 48.700653, -0.299021, 1.886581, -0.283922, 2.570305

1497889714.023568, 0.029932, -0.019853, 0.003360, 0.320000, 0.944000, -0.304000, -9.341166, 48.700982, -0.324384, 1.886968, -0.284448, 2.570193

1497889714.036935, 0.035430, -0.018631, 0.003360, 0.304000, 0.960000, -0.288000, -9.356000, 48.697985, -0.346025, 1.887013, -0.284621, 2.570456

1497889714.050294, 0.023824, -0.019242, 0.003665, 0.304000, 0.960000, -0.304000, -9.367959, 48.695559, -0.363474, 1.887209, -0.284759, 2.570222

1497889714.063658, 0.026267, -0.020769, 0.002138, 0.304000, 0.960000, -0.304000, -9.416482, 48.686560, -0.311407, 1.887437, -0.284870, 2.569965

1497889714.077011, 0.012828, -0.017410, -0.000000, 0.288000, 0.976000, -0.272000, -9.455061, 48.679330, -0.269995, 1.886767, -0.284659, 2.570607

1497889714.090383, 0.016799, -0.016188, 0.001222, 0.288000, 0.976000, -0.272000, -9.485772, 48.673527, -0.237018, 1.886160, -0.284472, 2.571235

1497889714.103762, 0.022907, -0.020464, 0.001833, 0.288000, 0.960000, -0.288000, -9.447763, 48.680722, -0.274562, 1.886058, -0.284321, 2.571206

1497889714.117144, 0.030849, -0.017410, 0.003054, 0.288000, 0.976000, -0.288000, -9.417361, 48.686433, -0.304584, 1.885961, -0.284122, 2.571297

1497889714.130508, 0.030543, -0.018326, 0.003054, 0.288000, 0.976000, -0.288000, -9.391777, 48.691350, -0.308630, 1.885865, -0.283924, 2.571367

1497889714.143876, 0.025656, -0.019242, -0.000000, 0.304000, 0.960000, -0.304000, -9.371169, 48.695299, -0.311889, 1.886104, -0.284031, 2.571098

1497889714.157248, 0.020159, -0.019242, 0.003360, 0.288000, 0.976000, -0.288000, -9.354592, 48.698470, -0.314510, 1.885873, -0.283834, 2.571148

1497889714.170615, 0.020159, -0.016188, 0.005192, 0.288000, 0.976000, -0.288000, -9.391001, 48.691715, -0.272455, 1.885637, -0.283677, 2.571215

1497889714.183984, 0.026573, -0.021075, 0.001833, 0.288000, 0.976000, -0.304000, -9.419965, 48.686296, -0.238990, 1.885807, -0.283431, 2.570717

1497889714.197373, 0.025656, -0.017715, 0.003054, 0.288000, 0.976000, -0.304000, -9.381573, 48.693517, -0.275287, 1.885951, -0.283220, 2.570275

1497889714.210743, 0.027489, -0.020464, 0.001222, 0.304000, 0.976000, -0.288000, -9.351094, 48.699208, -0.304097, 1.885825, -0.283301, 2.570568

1497889714.224112, 0.025656, -0.020159, 0.001222, 0.304000, 0.976000, -0.288000, -9.326858, 48.703707, -0.327000, 1.885677, -0.283382, 2.570864

1497889714.237491, 0.018631, -0.018937, 0.002749, 0.304000, 0.976000, -0.288000, -9.290396, 48.710680, -0.326288, 1.885437, -0.283485, 2.571150

1497889714.250869, 0.018937, -0.017410, 0.002138, 0.288000, 0.976000, -0.304000, -9.261010, 48.716279, -0.325714, 1.885498, -0.283262, 2.570688

1497889714.264282, 0.017410, -0.015577, 0.004276, 0.320000, 0.960000, -0.288000, -9.271563, 48.714662, -0.260894, 1.885334, -0.283775, 2.571119

1497889714.277703, 0.028711, -0.012828, 0.002443, 0.320000, 0.960000, -0.288000, -9.279995, 48.713307, -0.209024, 1.885310, -0.284266, 2.571555

1497889714.291096, 0.024740, -0.014661, 0.002138, 0.304000, 0.976000, -0.288000, -9.286734, 48.712183, -0.167520, 1.885141, -0.284359, 2.571779

1497889714.304639, 0.034208, -0.021380, 0.001833, 0.304000, 0.976000, -0.288000, -9.381490, 48.693993, -0.175877, 1.885130, -0.284419, 2.571951

1497889714.318209, 0.012523, -0.018326, -0.002138, 0.304000, 0.960000, -0.256000, -9.456650, 48.679428, -0.182507, 1.884299, -0.284604, 2.573169

1497889714.331668, 0.013439, -0.018326, -0.002749, 0.272000, 0.976000, -0.288000, -9.398840, 48.690417, -0.230954, 1.884008, -0.284026, 2.572917

1497889714.345100, 0.021075, -0.018937, 0.001527, 0.272000, 0.976000, -0.288000, -9.352360, 48.699166, -0.269892, 1.883829, -0.283512, 2.572650

1497889714.358539, 0.026267, -0.018631, 0.001222, 0.288000, 0.976000, -0.288000, -9.315026, 48.706138, -0.301158, 1.883721, -0.283301, 2.572659

1497889714.371968, 0.032987, -0.020159, 0.002749, 0.288000, 0.960000, -0.304000, -9.406148, 48.688601, -0.304686, 1.884108, -0.283158, 2.572097

1497889714.385382, 0.029016, -0.020769, 0.000916, 0.288000, 0.960000, -0.304000, -9.479031, 48.674446, -0.307508, 1.884434, -0.282993, 2.571578

1497889714.398842, 0.031460, -0.020464, 0.005192, 0.320000, 0.960000, -0.288000, -9.501255, 48.670231, -0.288093, 1.884498, -0.283503, 2.572026

1497889714.412254, 0.025962, -0.017715, 0.004276, 0.288000, 0.976000, -0.320000, -9.518977, 48.666858, -0.272610, 1.884974, -0.283283, 2.571121

1497889714.425694, 0.023824, -0.015272, 0.002443, 0.288000, 0.976000, -0.320000, -9.533116, 48.664158, -0.260254, 1.885403, -0.283054, 2.570271

1497889714.439112, 0.028405, -0.017410, 0.002443, 0.272000, 0.976000, -0.288000, -9.467208, 48.677174, -0.230220, 1.885287, -0.282577, 2.570096

1497889714.452597, 0.025656, -0.018937, -0.000000, 0.272000, 0.976000, -0.288000, -9.414189, 48.687564, -0.206067, 1.885142, -0.282073, 2.569876

1497889714.466148, 0.025045, -0.019853, 0.004581, 0.304000, 0.976000, -0.288000, -9.385672, 48.692860, -0.250678, 1.885008, -0.282221, 2.570145

1497889714.479619, 0.021686, -0.016799, 0.001833, 0.320000, 0.976000, -0.288000, -9.399531, 48.689988, -0.286543, 1.884824, -0.282635, 2.570718

1497889714.493056, 0.025962, -0.014355, 0.006109, 0.320000, 0.976000, -0.288000, -9.410666, 48.687659, -0.315367, 1.884694, -0.283104, 2.571318

1497889714.506475, 0.025656, -0.019548, 0.003360, 0.304000, 0.960000, -0.304000, -9.446969, 48.680999, -0.251685, 1.884962, -0.283268, 2.571023

1497889714.519884, 0.029932, -0.018631, 0.003360, 0.288000, 0.976000, -0.288000, -9.475812, 48.675629, -0.201064, 1.884881, -0.283089, 2.571055

1497889714.533435, 0.026573, -0.019242, 0.002138, 0.288000, 0.976000, -0.288000, -9.498758, 48.671306, -0.160773, 1.884763, -0.282895, 2.571063

1497889714.547454, 0.016493, -0.023824, 0.000916, 0.288000, 0.960000, -0.288000, -9.517035, 48.667831, -0.128672, 1.884631, -0.282746, 2.570914

1497889714.560927, 0.025045, -0.016799, 0.000611, 0.288000, 0.960000, -0.288000, -9.531605, 48.665040, -0.103074, 1.884575, -0.282628, 2.570863

1497889714.574521, 0.023824, -0.014661, 0.002138, 0.288000, 0.960000, -0.272000, -9.483652, 48.674063, -0.210235, 1.884195, -0.282576, 2.571403

1497889714.588375, 0.025045, -0.020159, 0.002138, 0.272000, 0.960000, -0.288000, -9.444936, 48.681140, -0.296665, 1.884174, -0.282168, 2.571117

1497889714.601862, 0.030849, -0.020159, 0.002749, 0.272000, 0.960000, -0.288000, -9.407905, 48.688149, -0.322104, 1.884218, -0.281777, 2.570843

1497889714.615347, 0.024740, -0.018021, -0.000000, 0.304000, 0.960000, -0.288000, -9.378368, 48.693708, -0.342391, 1.884176, -0.281963, 2.571119

1497889714.629035, 0.020464, -0.014661, 0.001222, 0.304000, 0.960000, -0.288000, -9.354795, 48.698126, -0.358578, 1.884072, -0.282174, 2.571427

1497889714.642517, 0.018326, -0.019853, 0.005498, 0.304000, 0.960000, -0.288000, -9.314181, 48.705815, -0.371390, 1.883960, -0.282414, 2.571638

1497889714.657095, 0.013744, -0.017715, 0.001222, 0.288000, 0.976000, -0.288000, -9.281755, 48.711925, -0.381616, 1.883702, -0.282224, 2.571698

1497889714.670562, 0.019853, -0.016799, 0.001833, 0.336000, 0.944000, -0.288000, -9.275790, 48.712624, -0.433820, 1.883715, -0.283104, 2.572360

1497889714.684017, 0.032376, -0.019242, 0.007941, 0.336000, 0.944000, -0.288000, -9.270982, 48.713147, -0.475842, 1.883909, -0.284033, 2.572975

1497889714.697491, 0.033598, -0.019853, 0.007636, 0.288000, 0.960000, -0.272000, -9.267111, 48.713542, -0.509626, 1.883693, -0.284002, 2.573501

1497889714.710955, 0.033903, -0.019242, 0.004581, 0.288000, 0.960000, -0.272000, -9.321176, 48.704191, -0.407031, 1.883479, -0.283935, 2.573989

1497889714.724396, 0.027184, -0.020159, -0.000000, 0.288000, 0.960000, -0.320000, -9.364209, 48.696550, -0.325300, 1.884095, -0.283723, 2.572915

1497889714.737934, 0.025656, -0.014966, 0.004581, 0.288000, 0.960000, -0.304000, -9.399106, 48.690104, -0.280768, 1.884365, -0.283616, 2.572388

1497889714.751445, 0.018021, -0.016493, 0.003971, 0.288000, 0.960000, -0.304000, -9.426842, 48.684933, -0.245364, 1.884531, -0.283496, 2.571843

1497889714.764889, 0.016188, -0.015577, 0.002138, 0.320000, 0.960000, -0.320000, -9.448915, 48.680788, -0.217180, 1.884960, -0.283916, 2.571337

1497889714.778342, 0.025656, -0.020464, 0.000916, 0.304000, 0.960000, -0.288000, -9.377893, 48.694423, -0.237815, 1.884924, -0.284061, 2.571500

1497889714.791849, 0.032987, -0.019853, 0.003360, 0.304000, 0.960000, -0.288000, -9.320767, 48.705306, -0.254407, 1.884987, -0.284235, 2.571645

1497889714.805444, 0.029016, -0.020769, 0.003971, 0.272000, 0.960000, -0.272000, -9.407247, 48.688915, -0.203763, 1.884687, -0.283846, 2.571795

1497889714.818872, 0.030238, -0.016188, 0.004887, 0.304000, 0.976000, -0.288000, -9.476372, 48.675661, -0.163264, 1.884613, -0.283977, 2.572053

1497889714.832237, 0.029932, -0.018326, 0.001527, 0.304000, 0.976000, -0.288000, -9.531635, 48.664968, -0.130877, 1.884538, -0.284054, 2.572295

1497889714.845806, 0.027794, -0.018326, 0.004581, 0.304000, 0.976000, -0.288000, -9.565663, 48.658305, -0.125473, 1.884447, -0.284168, 2.572524

1497889714.859392, 0.021991, -0.020464, 0.000611, 0.304000, 0.976000, -0.288000, -9.592632, 48.653006, -0.121190, 1.884284, -0.284221, 2.572745

1497889714.873015, 0.019853, -0.018937, -0.000305, 0.304000, 0.976000, -0.288000, -9.504644, 48.670001, -0.202523, 1.884091, -0.284267, 2.573004

1497889714.886373, 0.027184, -0.018937, 0.002138, 0.288000, 0.976000, -0.288000, -9.433837, 48.683459, -0.267937, 1.883989, -0.284052, 2.573025

1497889714.899713, 0.028100, -0.019242, 0.002138, 0.288000, 0.976000, -0.288000, -9.376922, 48.694136, -0.320491, 1.883902, -0.283839, 2.573055

1497889714.913038, 0.025351, -0.017715, 0.001833, 0.320000, 0.992000, -0.304000, -9.349559, 48.699532, -0.299293, 1.883988, -0.284100, 2.573137

1497889714.926354, 0.018937, -0.014966, 0.002443, 0.304000, 0.992000, -0.272000, -9.327607, 48.703843, -0.282290, 1.883384, -0.284158, 2.574001

1497889714.939668, 0.027794, -0.021991, 0.001833, 0.304000, 0.992000, -0.272000, -9.388038, 48.692425, -0.246554, 1.882931, -0.284179, 2.574759

1497889714.952978, 0.009774, -0.014661, 0.001833, 0.288000, 0.960000, -0.288000, -9.436121, 48.683265, -0.218113, 1.882700, -0.284057, 2.574692

1497889714.966292, 0.026573, -0.018326, 0.003665, 0.288000, 0.960000, -0.288000, -9.474420, 48.675922, -0.195453, 1.882708, -0.283946, 2.574574

1497889714.979628, 0.026573, -0.012217, 0.001527, 0.304000, 0.960000, -0.304000, -9.424304, 48.685545, -0.220068, 1.882997, -0.284100, 2.574289

1497889714.992957, 0.025962, -0.016799, 0.001222, 0.304000, 0.960000, -0.288000, -9.384061, 48.693225, -0.239830, 1.882986, -0.284259, 2.574446

1497889715.006280, 0.029322, -0.022602, 0.002443, 0.304000, 0.960000, -0.288000, -9.351771, 48.699356, -0.255683, 1.883042, -0.284407, 2.574517

1497889715.019612, 0.022297, -0.019242, 0.003360, 0.304000, 0.960000, -0.304000, -9.324226, 48.704020, -0.354246, 1.883296, -0.284547, 2.574180

1497889715.032922, 0.025656, -0.018326, 0.003054, 0.304000, 0.960000, -0.288000, -9.301966, 48.707633, -0.433795, 1.883283, -0.284716, 2.574406

1497889715.046240, 0.024435, -0.012217, 0.003360, 0.304000, 0.960000, -0.288000, -9.334760, 48.701568, -0.409664, 1.883233, -0.284908, 2.574703

1497889715.059563, 0.026267, -0.014966, 0.001222, 0.304000, 0.976000, -0.288000, -9.360818, 48.696723, -0.390486, 1.883123, -0.284978, 2.575041

1497889715.072888, 0.025045, -0.018326, 0.002443, 0.304000, 0.976000, -0.288000, -9.381550, 48.692854, -0.375225, 1.883014, -0.285048, 2.575321

1497889715.086215, 0.027489, -0.020464, -0.000611, 0.304000, 0.976000, -0.272000, -9.350509, 48.699210, -0.321269, 1.882643, -0.285106, 2.576046

1497889715.099538, 0.023213, -0.023518, 0.002443, 0.288000, 0.960000, -0.288000, -9.325707, 48.704231, -0.278174, 1.882626, -0.284937, 2.575831

1497889715.112853, 0.025656, -0.020464, 0.001527, 0.288000, 0.960000, -0.288000, -9.307661, 48.707363, -0.329333, 1.882630, -0.284773, 2.575691

1497889715.126209, 0.022297, -0.014661, 0.002749, 0.304000, 0.960000, -0.304000, -9.293121, 48.709844, -0.370532, 1.882875, -0.284916, 2.575390

1497889715.139527, 0.020769, -0.021075, 0.001527, 0.288000, 0.976000, -0.256000, -9.281422, 48.711811, -0.403666, 1.882108, -0.284748, 2.576431

1497889715.152845, 0.021075, -0.019242, -0.001222, 0.288000, 0.976000, -0.256000, -9.273878, 48.713553, -0.364985, 1.881351, -0.284554, 2.577456

1497889715.166192, 0.030238, -0.020464, 0.000305, 0.304000, 0.976000, -0.304000, -9.267859, 48.714920, -0.334153, 1.881649, -0.284566, 2.577098

1497889715.179512, 0.025351, -0.017410, 0.002443, 0.304000, 0.976000, -0.304000, -9.285605, 48.711263, -0.372381, 1.881868, -0.284616, 2.576811

1497889715.192827, 0.025045, -0.015882, 0.002138, 0.288000, 0.976000, -0.288000, -9.299721, 48.708328, -0.402802, 1.881771, -0.284406, 2.576832

1497889715.206187, 0.019853, -0.016493, 0.002138, 0.320000, 0.976000, -0.304000, -9.310964, 48.705973, -0.427036, 1.881916, -0.284747, 2.576845

1497889715.219606, 0.028711, -0.018631, 0.006109, 0.320000, 0.976000, -0.304000, -9.263679, 48.714799, -0.448188, 1.882189, -0.285122, 2.576808

1497889715.233005, 0.020159, -0.018631, 0.004276, 0.288000, 0.976000, -0.288000, -9.225665, 48.721853, -0.465189, 1.882036, -0.284917, 2.576795

1497889715.246377, 0.035125, -0.019853, 0.003054, 0.288000, 0.976000, -0.304000, -9.239807, 48.719969, -0.372566, 1.882388, -0.284668, 2.576206

1497889715.259754, 0.039706, -0.020464, 0.003971, 0.288000, 0.976000, -0.304000, -9.251104, 48.718336, -0.298421, 1.882797, -0.284432, 2.575574

1497889715.273118, 0.018631, -0.018021, 0.006720, 0.288000, 0.976000, -0.288000, -9.260129, 48.716949, -0.239075, 1.882612, -0.284273, 2.575446

1497889715.286463, 0.025351, -0.017410, 0.002443, 0.288000, 0.976000, -0.288000, -9.323675, 48.704638, -0.275016, 1.882511, -0.284066, 2.575397

1497889715.299835, 0.024129, -0.018021, 0.003665, 0.304000, 0.976000, -0.304000, -9.374137, 48.694781, -0.303565, 1.882702, -0.284139, 2.575121

1497889715.313208, 0.027184, -0.021075, 0.000916, 0.304000, 0.944000, -0.288000, -9.289235, 48.710425, -0.390933, 1.882824, -0.284361, 2.575190

1497889715.326570, 0.029627, -0.019548, 0.002749, 0.304000, 0.944000, -0.288000, -9.220999, 48.722775, -0.461107, 1.882971, -0.284609, 2.575289

1497889715.339933, 0.029932, -0.019853, -0.000611, 0.288000, 0.976000, -0.304000, -9.166208, 48.732547, -0.517424, 1.883231, -0.284320, 2.574810

1497889715.353305, 0.020159, -0.015882, 0.001222, 0.288000, 0.960000, -0.272000, -9.199096, 48.727148, -0.435877, 1.882827, -0.284217, 2.575303

1497889715.366674, 0.019242, -0.017715, 0.000916, 0.304000, 0.960000, -0.272000, -9.225444, 48.722707, -0.370490, 1.882433, -0.284403, 2.575967

1497889715.380046, 0.018326, -0.014050, 0.001833, 0.288000, 0.960000, -0.288000, -9.263218, 48.716175, -0.274555, 1.882322, -0.284278, 2.575850

1497889715.393397, 0.031765, -0.016188, 0.003971, 0.288000, 0.960000, -0.288000, -9.293217, 48.710831, -0.198292, 1.882400, -0.284174, 2.575661

1497889715.406754, 0.015882, -0.016799, 0.001527, 0.304000, 0.976000, -0.288000, -9.317077, 48.706482, -0.137590, 1.882179, -0.284252, 2.575770

1497889715.420118, 0.020769, -0.018631, 0.002443, 0.304000, 0.960000, -0.288000, -9.290404, 48.711381, -0.194898, 1.882125, -0.284415, 2.575801

1497889715.433574, 0.025045, -0.020159, 0.003971, 0.304000, 0.960000, -0.288000, -9.268923, 48.715267, -0.241027, 1.882139, -0.284588, 2.575825

1497889715.446954, 0.032681, -0.015272, 0.001222, 0.304000, 0.976000, -0.304000, -9.254251, 48.718079, -0.236370, 1.882437, -0.284631, 2.575495

1497889715.460330, 0.026267, -0.018021, 0.002443, 0.304000, 0.976000, -0.288000, -9.242417, 48.720344, -0.232615, 1.882358, -0.284707, 2.575620

1497889715.473698, 0.027794, -0.018631, 0.003054, 0.304000, 0.976000, -0.288000, -9.232887, 48.722165, -0.229591, 1.882303, -0.284786, 2.575727

1497889715.487060, 0.031154, -0.019242, 0.001833, 0.304000, 0.960000, -0.256000, -9.261414, 48.716666, -0.246952, 1.881776, -0.285007, 2.576817

1497889715.500404, 0.025656, -0.017410, 0.003360, 0.304000, 0.960000, -0.256000, -9.284065, 48.712282, -0.260739, 1.881182, -0.285250, 2.577921

1497889715.513745, 0.024129, -0.016188, 0.002749, 0.288000, 0.960000, -0.288000, -9.302079, 48.708785, -0.271705, 1.881180, -0.285111, 2.577749

1497889715.527155, 0.010385, -0.018631, 0.000611, 0.288000, 0.976000, -0.288000, -9.256418, 48.717301, -0.302642, 1.880916, -0.284859, 2.577635

1497889715.540490, 0.032070, -0.015882, 0.000916, 0.288000, 0.976000, -0.288000, -9.219772, 48.724089, -0.327466, 1.880929, -0.284628, 2.577560

1497889715.553822, 0.012828, -0.017410, 0.002443, 0.304000, 0.976000, -0.272000, -9.189337, 48.729695, -0.348053, 1.880400, -0.284742, 2.578223

1497889715.567149, 0.040928, -0.018021, 0.004581, 0.304000, 0.960000, -0.256000, -9.164851, 48.734185, -0.364612, 1.880036, -0.285003, 2.579314

1497889715.580485, 0.006720, -0.017715, 0.000305, 0.288000, 0.960000, -0.256000, -9.145175, 48.737780, -0.377917, 1.879215, -0.284904, 2.580178

1497889715.593823, 0.023213, -0.017410, 0.001527, 0.288000, 0.976000, -0.304000, -9.202060, 48.727603, -0.301707, 1.879456, -0.284647, 2.579498

1497889715.607157, 0.015272, -0.016493, -0.000916, 0.288000, 0.976000, -0.304000, -9.247297, 48.719377, -0.241070, 1.879583, -0.284368, 2.578832

1497889715.620488, 0.011606, -0.017715, 0.003971, 0.288000, 0.976000, -0.288000, -9.207399, 48.726483, -0.319230, 1.879366, -0.284177, 2.578686

1497889715.633822, 0.019853, -0.016799, 0.001527, 0.272000, 0.960000, -0.272000, -9.175688, 48.732018, -0.381310, 1.879034, -0.283773, 2.578787

1497889715.647152, 0.016799, -0.017410, 0.003971, 0.272000, 0.960000, -0.272000, -9.150452, 48.736352, -0.430691, 1.878674, -0.283406, 2.578891

1497889715.660483, 0.028711, -0.017715, 0.004276, 0.288000, 0.976000, -0.304000, -9.140734, 48.738527, -0.388940, 1.879001, -0.283212, 2.578252

1497889715.673819, 0.019853, -0.018326, 0.000916, 0.288000, 0.976000, -0.304000, -9.132879, 48.740256, -0.355217, 1.879205, -0.282978, 2.577606

1497889715.687180, 0.032376, -0.018021, 0.001222, 0.304000, 0.960000, -0.272000, -9.213740, 48.725237, -0.326386, 1.879056, -0.283189, 2.578184

1497889715.700571, 0.017715, -0.019242, -0.000000, 0.304000, 0.960000, -0.288000, -9.278222, 48.713148, -0.303387, 1.879025, -0.283341, 2.578235

1497889715.713960, 0.022907, -0.016799, 0.001833, 0.304000, 0.960000, -0.288000, -9.329676, 48.703431, -0.285030, 1.879055, -0.283523, 2.578317

1497889715.727309, 0.032070, -0.019548, 0.002443, 0.320000, 0.960000, -0.288000, -9.375549, 48.694319, -0.332569, 1.879222, -0.283991, 2.578640

1497889715.740659, 0.025656, -0.020159, 0.002443, 0.288000, 0.976000, -0.288000, -9.411950, 48.687024, -0.370305, 1.879203, -0.283780, 2.578591

1497889715.754004, 0.025351, -0.021380, 0.001833, 0.288000, 0.976000, -0.288000, -9.359404, 48.696335, -0.465540, 1.879183, -0.283561, 2.578572

1497889715.767342, 0.005803, -0.018631, 0.000611, 0.288000, 0.976000, -0.288000, -9.317140, 48.703648, -0.542080, 1.878897, -0.283343, 2.578629

1497889715.780680, 0.026573, -0.020464, 0.001527, 0.288000, 0.976000, -0.288000, -9.283182, 48.709409, -0.603538, 1.878895, -0.283133, 2.578684

1497889715.794011, 0.027489, -0.019242, -0.001222, 0.288000, 0.960000, -0.256000, -9.289239, 48.708923, -0.546895, 1.878373, -0.283051, 2.579720

1497889715.808010, 0.025045, -0.017715, -0.000305, 0.304000, 0.976000, -0.288000, -9.294083, 48.708488, -0.501513, 1.878373, -0.283123, 2.579964

1497889715.821473, 0.026573, -0.017410, 0.004887, 0.304000, 0.976000, -0.288000, -9.285744, 48.710658, -0.441627, 1.878382, -0.283263, 2.580152

1497889715.834848, 0.020769, -0.017410, 0.002749, 0.288000, 0.976000, -0.288000, -9.279120, 48.712327, -0.394135, 1.878307, -0.283080, 2.580067

1497889715.848199, 0.021991, -0.018631, 0.003971, 0.320000, 0.976000, -0.304000, -9.273852, 48.713621, -0.356404, 1.878557, -0.283462, 2.579922

1497889715.861559, 0.020769, -0.015882, 0.004276, 0.320000, 0.976000, -0.304000, -9.235084, 48.720887, -0.369675, 1.878777, -0.283851, 2.579808

1497889715.874905, 0.041539, -0.015882, 0.005498, 0.288000, 0.976000, -0.288000, -9.203958, 48.726695, -0.380328, 1.878963, -0.283697, 2.579699

1497889715.888248, 0.033903, -0.019242, 0.005192, 0.272000, 0.960000, -0.288000, -9.257666, 48.716608, -0.368771, 1.879149, -0.283310, 2.579223

1497889715.901589, 0.024435, -0.017104, 0.003971, 0.272000, 0.960000, -0.288000, -9.300905, 48.708441, -0.359464, 1.879198, -0.282924, 2.578803

1497889715.914930, 0.029322, -0.018631, 0.001527, 0.288000, 0.992000, -0.288000, -9.335672, 48.701844, -0.351979, 1.879131, -0.282651, 2.578807

1497889715.928264, 0.018021, -0.021991, 0.000611, 0.288000, 0.992000, -0.288000, -9.361515, 48.697081, -0.323391, 1.878930, -0.282360, 2.578763

1497889715.941607, 0.048258, -0.015272, 0.004581, 0.304000, 0.976000, -0.304000, -9.382096, 48.693266, -0.300620, 1.879498, -0.282490, 2.578454

1497889715.954942, 0.008247, -0.019242, 0.001833, 0.304000, 0.944000, -0.272000, -9.350255, 48.699612, -0.262200, 1.879122, -0.282798, 2.578931

1497889715.968284, -0.001222, -0.018937, -0.000611, 0.304000, 0.944000, -0.272000, -9.324712, 48.704666, -0.231387, 1.878626, -0.283070, 2.579383

1497889715.981660, 0.030543, -0.018021, 0.003665, 0.272000, 0.976000, -0.288000, -9.304233, 48.708693, -0.206689, 1.878679, -0.282605, 2.578926

1497889715.995028, 0.024740, -0.020159, 0.003665, 0.272000, 0.960000, -0.288000, -9.264230, 48.716213, -0.230014, 1.878754, -0.282216, 2.578369

1497889716.008370, 0.029627, -0.022297, 0.003665, 0.304000, 0.960000, -0.288000, -9.231972, 48.722244, -0.248819, 1.878898, -0.282421, 2.578308

1497889716.021715, 0.032987, -0.018937, 0.002749, 0.288000, 0.944000, -0.304000, -9.279032, 48.713443, -0.219806, 1.879470, -0.282385, 2.577463

1497889716.035051, 0.023213, -0.019548, 0.000611, 0.288000, 0.944000, -0.304000, -9.316417, 48.706405, -0.196752, 1.879902, -0.282320, 2.576637

1497889716.048383, 0.021991, -0.017410, 0.004276, 0.304000, 0.976000, -0.320000, -9.346158, 48.700778, -0.178409, 1.880410, -0.282415, 2.575770

1497889716.061717, 0.014966, -0.015577, 0.004276, 0.272000, 0.976000, -0.272000, -9.322146, 48.705177, -0.227193, 1.879904, -0.282011, 2.575966

1497889716.075047, 0.014966, -0.017715, -0.000611, 0.272000, 0.976000, -0.272000, -9.302962, 48.708647, -0.266152, 1.879410, -0.281546, 2.576170

1497889716.088389, 0.026573, -0.018631, 0.002749, 0.288000, 0.992000, -0.320000, -9.287631, 48.711393, -0.297276, 1.879901, -0.281268, 2.575170

1497889716.101742, 0.034208, -0.021380, 0.004276, 0.288000, 0.992000, -0.256000, -9.237085, 48.720836, -0.323448, 1.879294, -0.281127, 2.576197

1497889716.115087, 0.018631, -0.020159, 0.001833, 0.272000, 0.976000, -0.256000, -9.196380, 48.728392, -0.344520, 1.878561, -0.280738, 2.576912

1497889716.128432, 0.027794, -0.018631, 0.003971, 0.288000, 0.960000, -0.288000, -9.209460, 48.726360, -0.275624, 1.878670, -0.280695, 2.576687

1497889716.141776, 0.028405, -0.019548, 0.001527, 0.288000, 0.960000, -0.288000, -9.219892, 48.724667, -0.220607, 1.878785, -0.280619, 2.576432

1497889716.155115, 0.036652, -0.020769, -0.002443, 0.288000, 0.976000, -0.288000, -9.228217, 48.723270, -0.176657, 1.878915, -0.280411, 2.576233

1497889716.168454, 0.008552, -0.018631, 0.002443, 0.320000, 0.976000, -0.304000, -9.250586, 48.719144, -0.141200, 1.878974, -0.280826, 2.576024

1497889716.181799, 0.028405, -0.016493, 0.001833, 0.320000, 0.976000, -0.304000, -9.268382, 48.715835, -0.112983, 1.879283, -0.281235, 2.575839

1497889716.195177, 0.023518, -0.014355, 0.000611, 0.288000, 0.976000, -0.304000, -9.276438, 48.713947, -0.217583, 1.879515, -0.281052, 2.575266

1497889716.208589, 0.031765, -0.016799, -0.001222, 0.288000, 0.976000, -0.304000, -9.282894, 48.712268, -0.301804, 1.879857, -0.280839, 2.574737

1497889716.221971, 0.018021, -0.017715, 0.002749, 0.288000, 0.976000, -0.320000, -9.288067, 48.710815, -0.369530, 1.880319, -0.280656, 2.573745

1497889716.235358, 0.037263, -0.020159, 0.003971, 0.304000, 0.976000, -0.288000, -9.315787, 48.705601, -0.358904, 1.880437, -0.280824, 2.573982

1497889716.248752, 0.008552, -0.017715, 0.002138, 0.304000, 0.976000, -0.288000, -9.337890, 48.701430, -0.350429, 1.880165, -0.280975, 2.574258

1497889716.262134, 0.030849, -0.016493, 0.001222, 0.288000, 0.960000, -0.304000, -9.335277, 48.701989, -0.342231, 1.880577, -0.280876, 2.573713

1497889716.275543, 0.004276, -0.016799, 0.001222, 0.304000, 0.960000, -0.288000, -9.333207, 48.702431, -0.335734, 1.880332, -0.281100, 2.573922

1497889716.288897, 0.029016, -0.018937, 0.002443, 0.304000, 0.960000, -0.288000, -9.331562, 48.702782, -0.330575, 1.880425, -0.281326, 2.574090

1497889716.302274, 0.056505, -0.015272, 0.001527, 0.304000, 0.976000, -0.320000, -9.266770, 48.715167, -0.328190, 1.881365, -0.281414, 2.573374

1497889716.315669, 0.032376, -0.021075, -0.001527, 0.304000, 0.976000, -0.304000, -9.214685, 48.725059, -0.326272, 1.881691, -0.281463, 2.573070

1497889716.329060, -0.002138, -0.016799, -0.000611, 0.304000, 0.976000, -0.304000, -9.244593, 48.719255, -0.346304, 1.881545, -0.281540, 2.572849

1497889716.342452, 0.011606, -0.018021, 0.005803, 0.272000, 0.976000, -0.288000, -9.268659, 48.714565, -0.362425, 1.881291, -0.281133, 2.572604

1497889716.355828, 0.016799, -0.017715, 0.003054, 0.272000, 0.976000, -0.288000, -9.288001, 48.710783, -0.375384, 1.881106, -0.280702, 2.572397

1497889716.369209, 0.019853, -0.019548, 0.002443, 0.320000, 0.960000, -0.336000, -9.352987, 48.698997, -0.278579, 1.881956, -0.281146, 2.571369

1497889716.382600, 0.028711, -0.020769, 0.002443, 0.320000, 0.992000, -0.272000, -9.404646, 48.689427, -0.201572, 1.881556, -0.281529, 2.572382

1497889716.396000, 0.038790, -0.019548, 0.004887, 0.320000, 0.992000, -0.272000, -9.364778, 48.696676, -0.288040, 1.881296, -0.281940, 2.573424

1497889716.409493, 0.021380, -0.017715, 0.004276, 0.304000, 0.976000, -0.288000, -9.332778, 48.702359, -0.357388, 1.881180, -0.282096, 2.573702

1497889716.422905, 0.029016, -0.018937, 0.000611, 0.288000, 0.960000, -0.304000, -9.307110, 48.706831, -0.412977, 1.881557, -0.281956, 2.573173

1497889716.436295, 0.019548, -0.016493, 0.000611, 0.288000, 0.960000, -0.304000, -9.321572, 48.704209, -0.395698, 1.881792, -0.281829, 2.572680

1497889716.449678, 0.060170, -0.018631, 0.005192, 0.304000, 0.976000, -0.320000, -9.333234, 48.702087, -0.381763, 1.882770, -0.281939, 2.571995

1497889716.463046, 0.040012, -0.015577, 0.003665, 0.304000, 0.976000, -0.320000, -9.344906, 48.700254, -0.325981, 1.883450, -0.282039, 2.571338

1497889716.476414, -0.020769, -0.017410, 0.002749, 0.288000, 0.976000, -0.304000, -9.354185, 48.698749, -0.281595, 1.883031, -0.281854, 2.570881

1497889716.489788, 0.041844, -0.014966, 0.003054, 0.288000, 0.976000, -0.304000, -9.361571, 48.697522, -0.246238, 1.883432, -0.281685, 2.570444

1497889716.503148, -0.005498, -0.018326, 0.001833, 0.288000, 0.976000, -0.304000, -9.341424, 48.701072, -0.302719, 1.883215, -0.281492, 2.570005

1497889716.516498, 0.019548, -0.018631, 0.001527, 0.304000, 0.976000, -0.304000, -9.325304, 48.703860, -0.347882, 1.883331, -0.281588, 2.569847

1497889716.529845, 0.020464, -0.020769, 0.001527, 0.320000, 0.960000, -0.272000, -9.274145, 48.713171, -0.406729, 1.882969, -0.282121, 2.570841

1497889716.543199, 0.031154, -0.017104, 0.001527, 0.320000, 0.960000, -0.272000, -9.232915, 48.720584, -0.454134, 1.882740, -0.282657, 2.571879

1497889716.556553, 0.034208, -0.014355, 0.002138, 0.320000, 0.960000, -0.272000, -9.199736, 48.726490, -0.492271, 1.882547, -0.283201, 2.572943

1497889716.569916, 0.022602, -0.019242, 0.001527, 0.320000, 0.960000, -0.272000, -9.274322, 48.712884, -0.436032, 1.882221, -0.283707, 2.573915

1497889716.583261, 0.036346, -0.016493, 0.003360, 0.288000, 0.960000, -0.304000, -9.333804, 48.701903, -0.391163, 1.882666, -0.283579, 2.573399

1497889716.596605, 0.007025, -0.018631, 0.003971, 0.288000, 0.960000, -0.272000, -9.286857, 48.710998, -0.375820, 1.882114, -0.283514, 2.573867

1497889716.609946, 0.017104, -0.019242, 0.002138, 0.288000, 0.960000, -0.272000, -9.249491, 48.718199, -0.363610, 1.881704, -0.283425, 2.574302

1497889716.623291, 0.029016, -0.020159, -0.001222, 0.304000, 0.960000, -0.272000, -9.219721, 48.723914, -0.353883, 1.881467, -0.283591, 2.574950

1497889716.636640, 0.021991, -0.019548, 0.000916, 0.320000, 0.960000, -0.288000, -9.200812, 48.727377, -0.368888, 1.881452, -0.284039, 2.575304

1497889716.649983, 0.016799, -0.016493, -0.000305, 0.320000, 0.960000, -0.288000, -9.185597, 48.730154, -0.380960, 1.881356, -0.284474, 2.575697

1497889716.663325, 0.029016, -0.021075, 0.005498, 0.288000, 0.960000, -0.272000, -9.173368, 48.732381, -0.390661, 1.881128, -0.284400, 2.576046

1497889716.676685, 0.022297, -0.022602, 0.002443, 0.288000, 0.960000, -0.272000, -9.201527, 48.727635, -0.312669, 1.880819, -0.284282, 2.576339

1497889716.690046, 0.015882, -0.021075, 0.003054, 0.288000, 0.960000, -0.304000, -9.224016, 48.723743, -0.250327, 1.881042, -0.284121, 2.575579

1497889716.703392, 0.043371, -0.017104, -0.000000, 0.304000, 0.992000, -0.272000, -9.243779, 48.719811, -0.284265, 1.880821, -0.284137, 2.576345

1497889716.716765, 0.035736, -0.017104, -0.000000, 0.304000, 0.992000, -0.272000, -9.259467, 48.716667, -0.311210, 1.880506, -0.284153, 2.577121

1497889716.730099, 0.038485, -0.018021, 0.001527, 0.288000, 0.992000, -0.304000, -9.271938, 48.714154, -0.332636, 1.880831, -0.283831, 2.576622

1497889716.743495, 0.003360, -0.020464, 0.005192, 0.288000, 0.992000, -0.320000, -9.290517, 48.710160, -0.393588, 1.881001, -0.283530, 2.575642

1497889716.756873, 0.039095, -0.018021, 0.002138, 0.304000, 0.992000, -0.320000, -9.305445, 48.706889, -0.442600, 1.881618, -0.283490, 2.575022

1497889716.770231, 0.010690, -0.016493, 0.003054, 0.272000, 0.976000, -0.272000, -9.317570, 48.704962, -0.397340, 1.881033, -0.283048, 2.575343

1497889716.783582, 0.025656, -0.014355, 0.002443, 0.272000, 0.976000, -0.272000, -9.327296, 48.703383, -0.361011, 1.880647, -0.282615, 2.575667

1497889716.796933, 0.006414, -0.021075, 0.003054, 0.288000, 0.960000, -0.288000, -9.335094, 48.702096, -0.331870, 1.880442, -0.282514, 2.575528

1497889716.810400, 0.012828, -0.021380, 0.001527, 0.288000, 0.960000, -0.304000, -9.368843, 48.695779, -0.306914, 1.880633, -0.282368, 2.574882

1497889716.823805, 0.030238, -0.016493, 0.002443, 0.288000, 0.960000, -0.304000, -9.395633, 48.690738, -0.287100, 1.881030, -0.282255, 2.574308

1497889716.837189, 0.017104, -0.017104, 0.002138, 0.304000, 0.976000, -0.304000, -9.306363, 48.707840, -0.293606, 1.881154, -0.282349, 2.574039

1497889716.850546, 0.032681, -0.021991, 0.001222, 0.320000, 0.976000, -0.304000, -9.234717, 48.721443, -0.298825, 1.881497, -0.282698, 2.573929

1497889716.863901, 0.030849, -0.018326, 0.001222, 0.320000, 0.976000, -0.304000, -9.177252, 48.732274, -0.303010, 1.881796, -0.283053, 2.573849

1497889716.877255, 0.028405, -0.017104, 0.000916, 0.288000, 0.976000, -0.272000, -9.170232, 48.733819, -0.264631, 1.881444, -0.282887, 2.574293

1497889716.890606, 0.023213, -0.018326, 0.002138, 0.288000, 0.976000, -0.272000, -9.164582, 48.735039, -0.233760, 1.881037, -0.282733, 2.574684

1497889716.903948, 0.035736, -0.019853, 0.003360, 0.304000, 0.960000, -0.288000, -9.193069, 48.729792, -0.207546, 1.881206, -0.282933, 2.574688

1497889716.917299, 0.026878, -0.020464, 0.002138, 0.304000, 0.976000, -0.272000, -9.215659, 48.725610, -0.186756, 1.880867, -0.283065, 2.575269

1497889716.930639, 0.039401, -0.018631, 0.003665, 0.304000, 0.976000, -0.272000, -9.233603, 48.722273, -0.170238, 1.880693, -0.283221, 2.575852

1497889716.943987, 0.031154, -0.019548, 0.002749, 0.320000, 0.960000, -0.272000, -9.234692, 48.721863, -0.220994, 1.880516, -0.283736, 2.576601

1497889716.957339, 0.013744, -0.020159, 0.001833, 0.320000, 0.976000, -0.288000, -9.235560, 48.721496, -0.261762, 1.880324, -0.284103, 2.576928

1497889716.970684, 0.020159, -0.014050, 0.001527, 0.288000, 0.976000, -0.288000, -9.213547, 48.725597, -0.273812, 1.880188, -0.283902, 2.576849

1497889716.984033, 0.013134, -0.019548, 0.000305, 0.304000, 0.960000, -0.288000, -9.195837, 48.728887, -0.283506, 1.880074, -0.284042, 2.576877

1497889716.997397, 0.029322, -0.017104, 0.002138, 0.304000, 0.960000, -0.288000, -9.181605, 48.731525, -0.291295, 1.880169, -0.284212, 2.576928

1497889717.010742, 0.037874, -0.020159, 0.000916, 0.288000, 0.960000, -0.288000, -9.253672, 48.718208, -0.232437, 1.880380, -0.284055, 2.576685

1497889717.024090, 0.016493, -0.018021, 0.001222, 0.304000, 0.992000, -0.272000, -9.310908, 48.707502, -0.185672, 1.879826, -0.284083, 2.577370

1497889717.037441, 0.028405, -0.018631, 0.001527, 0.304000, 0.992000, -0.272000, -9.279238, 48.713525, -0.190926, 1.879441, -0.284111, 2.578025

1497889717.050794, 0.021991, -0.018021, 0.000916, 0.288000, 0.944000, -0.272000, -9.253925, 48.718324, -0.195124, 1.879234, -0.284078, 2.578208

1497889717.064137, 0.015272, -0.017104, -0.000611, 0.288000, 0.944000, -0.304000, -9.233689, 48.722150, -0.198480, 1.879558, -0.283974, 2.577369

1497889717.077483, 0.018326, -0.018326, 0.001222, 0.272000, 0.976000, -0.304000, -9.170894, 48.733688, -0.265760, 1.879737, -0.283436, 2.576425

1497889717.090839, 0.022297, -0.016493, 0.000305, 0.304000, 0.976000, -0.304000, -9.120186, 48.742877, -0.320064, 1.879949, -0.283486, 2.576070

1497889717.104207, 0.028405, -0.020159, 0.000305, 0.304000, 0.976000, -0.304000, -9.207177, 48.726523, -0.319618, 1.880252, -0.283520, 2.575710

1497889717.117567, 0.021686, -0.019242, 0.000916, 0.288000, 0.960000, -0.288000, -9.276547, 48.713366, -0.319261, 1.880246, -0.283381, 2.575570

1497889717.130915, 0.013439, -0.020769, 0.001527, 0.304000, 0.976000, -0.288000, -9.331901, 48.702794, -0.318976, 1.880051, -0.283461, 2.575754

1497889717.144270, 0.021380, -0.018631, 0.006109, 0.304000, 0.976000, -0.288000, -9.366229, 48.696212, -0.317770, 1.879961, -0.283605, 2.575957

1497889717.157630, 0.028711, -0.018326, 0.001222, 0.288000, 0.960000, -0.256000, -9.393497, 48.690965, -0.316811, 1.879433, -0.283546, 2.576928

1497889717.170983, 0.021991, -0.020769, 0.001222, 0.288000, 0.960000, -0.320000, -9.415188, 48.686781, -0.316049, 1.880063, -0.283358, 2.575800

1497889717.184332, 0.038179, -0.017410, 0.004276, 0.288000, 0.976000, -0.288000, -9.432461, 48.683441, -0.315441, 1.880183, -0.283194, 2.575807

1497889717.197693, 0.049480, -0.016188, 0.003665, 0.304000, 0.992000, -0.288000, -9.446230, 48.680775, -0.314957, 1.880359, -0.283243, 2.576155

1497889717.211041, 0.010690, -0.015577, 0.001833, 0.304000, 0.992000, -0.288000, -9.402540, 48.689596, -0.252472, 1.880018, -0.283269, 2.576452

1497889717.224395, 0.027794, -0.020769, 0.006109, 0.304000, 0.992000, -0.304000, -9.367517, 48.696580, -0.202404, 1.880227, -0.283298, 2.576117

1497889717.237762, 0.016799, -0.017410, 0.004581, 0.304000, 0.960000, -0.288000, -9.339451, 48.702121, -0.162298, 1.880159, -0.283511, 2.576147

1497889717.251122, 0.047953, -0.018021, -0.000611, 0.304000, 0.960000, -0.288000, -9.300473, 48.709677, -0.129689, 1.880496, -0.283654, 2.576153

1497889717.264500, 0.018631, -0.018937, 0.002443, 0.304000, 0.960000, -0.288000, -9.269469, 48.715649, -0.103757, 1.880448, -0.283827, 2.576105

1497889717.277936, -0.005192, -0.018326, 0.000916, 0.304000, 0.960000, -0.352000, -9.162783, 48.735576, -0.188016, 1.881279, -0.283901, 2.574177

1497889717.291311, 0.022602, -0.019242, 0.002443, 0.288000, 0.960000, -0.336000, -9.076895, 48.751336, -0.255809, 1.882177, -0.283713, 2.572455

1497889717.304703, 0.020769, -0.018021, 0.002443, 0.288000, 0.976000, -0.288000, -9.007837, 48.763827, -0.310290, 1.882029, -0.283515, 2.572349

1497889717.318196, 0.042455, -0.019242, 0.001222, 0.288000, 0.976000, -0.288000, -9.013912, 48.763159, -0.228025, 1.882175, -0.283299, 2.572179

1497889717.331655, 0.023213, -0.018021, 0.001527, 0.288000, 0.976000, -0.288000, -9.018773, 48.762524, -0.161953, 1.882060, -0.283096, 2.571986

1497889717.345148, 0.034514, -0.015577, 0.003971, 0.304000, 0.960000, -0.272000, -9.109600, 48.745735, -0.129384, 1.881881, -0.283348, 2.572523

1497889717.358558, 0.024740, -0.020769, 0.002138, 0.304000, 0.960000, -0.272000, -9.181770, 48.732255, -0.103495, 1.881591, -0.283552, 2.573000

1497889717.372005, 0.024435, -0.020159, 0.002443, 0.320000, 0.976000, -0.304000, -9.239193, 48.721440, -0.082890, 1.881814, -0.283898, 2.572792

1497889717.385406, 0.021075, -0.017104, 0.002749, 0.288000, 0.976000, -0.288000, -9.217608, 48.725297, -0.171559, 1.881674, -0.283703, 2.572685

1497889717.398810, 0.041539, -0.018631, 0.003360, 0.288000, 0.976000, -0.288000, -9.200222, 48.728279, -0.242885, 1.881811, -0.283514, 2.572597

1497889717.412225, 0.034819, -0.016799, 0.003971, 0.320000, 0.992000, -0.256000, -9.225211, 48.723581, -0.237581, 1.881187, -0.283929, 2.574104

1497889717.427665, 0.030543, -0.016188, 0.003665, 0.320000, 0.992000, -0.320000, -9.245349, 48.719784, -0.233306, 1.881754, -0.284186, 2.573585

1497889717.441043, 0.032681, -0.015882, 0.005498, 0.304000, 0.960000, -0.288000, -9.261555, 48.716722, -0.229865, 1.881859, -0.284400, 2.573694

1497889717.454400, 0.030543, -0.019242, 0.004887, 0.288000, 0.960000, -0.288000, -9.265906, 48.716091, -0.183646, 1.881943, -0.284293, 2.573483

1497889717.467965, 0.025962, -0.017104, -0.000611, 0.288000, 0.960000, -0.288000, -9.269362, 48.715558, -0.146863, 1.881956, -0.284126, 2.573302

1497889717.481612, 0.029627, -0.019853, 0.002138, 0.288000, 0.976000, -0.288000, -9.274663, 48.714351, -0.202299, 1.881943, -0.283908, 2.573190

1497889717.495034, 0.030849, -0.019548, 0.002443, 0.288000, 0.992000, -0.288000, -9.278899, 48.713340, -0.246685, 1.881849, -0.283623, 2.573195

1497889717.508483, 0.019548, -0.018021, 0.000916, 0.288000, 0.992000, -0.288000, -9.282284, 48.712502, -0.282217, 1.881600, -0.283332, 2.573252

1497889717.521899, 0.029627, -0.020159, 0.002443, 0.304000, 0.960000, -0.304000, -9.221313, 48.724266, -0.248085, 1.881983, -0.283478, 2.572821

1497889717.535279, 0.038485, -0.019548, 0.003360, 0.288000, 0.960000, -0.304000, -9.172204, 48.733667, -0.220601, 1.882474, -0.283342, 2.572109

1497889717.548642, -0.003054, -0.017410, 0.002443, 0.288000, 0.960000, -0.304000, -9.209524, 48.726638, -0.218466, 1.882401, -0.283206, 2.571457

1497889717.562011, 0.052229, -0.016188, -0.000000, 0.304000, 0.976000, -0.304000, -9.239170, 48.721033, -0.216769, 1.882951, -0.283257, 2.571188

1497889717.575363, 0.031460, -0.014661, 0.000305, 0.304000, 0.976000, -0.304000, -9.262754, 48.716560, -0.215420, 1.883213, -0.283318, 2.570952

1497889717.588723, 0.019242, -0.015577, 0.002138, 0.304000, 0.976000, -0.272000, -9.209769, 48.726777, -0.172000, 1.882716, -0.283463, 2.571659

1497889717.602072, 0.035125, -0.016188, 0.003054, 0.288000, 0.992000, -0.304000, -9.167642, 48.734830, -0.137489, 1.882948, -0.283180, 2.571114

1497889717.615426, 0.012828, -0.019242, 0.001527, 0.288000, 0.992000, -0.304000, -9.097643, 48.747751, -0.194794, 1.882894, -0.282871, 2.570553

1497889717.628780, 0.015272, -0.018937, 0.001222, 0.288000, 0.976000, -0.288000, -9.041215, 48.758042, -0.240970, 1.882659, -0.282671, 2.570446

1497889717.642134, 0.015882, -0.017104, 0.001833, 0.304000, 0.992000, -0.256000, -8.995796, 48.766244, -0.278125, 1.881751, -0.282783, 2.571735

1497889717.655479, 0.032376, -0.020159, 0.004581, 0.304000, 0.992000, -0.256000, -9.035439, 48.758871, -0.285608, 1.881091, -0.282915, 2.572968

1497889717.668827, 0.028711, -0.019548, 0.000916, 0.288000, 0.976000, -0.304000, -9.067030, 48.752971, -0.291572, 1.881373, -0.282681, 2.572342

1497889717.682210, 0.029627, -0.019853, 0.003665, 0.288000, 0.976000, -0.304000, -9.104854, 48.746021, -0.274539, 1.881666, -0.282484, 2.571718

1497889717.695619, 0.028405, -0.017410, 0.001833, 0.320000, 0.960000, -0.304000, -9.134887, 48.740476, -0.261012, 1.882023, -0.282941, 2.571573

1497889717.708990, 0.011912, -0.015272, 0.005192, 0.288000, 0.960000, -0.304000, -9.158770, 48.736050, -0.250254, 1.882150, -0.282856, 2.570947

1497889717.722330, 0.003054, -0.016493, 0.001222, 0.288000, 0.960000, -0.304000, -9.095293, 48.747620, -0.305732, 1.882159, -0.282719, 2.570343

1497889717.735675, 0.028711, -0.019242, 0.003665, 0.304000, 0.976000, -0.304000, -9.044196, 48.756825, -0.350372, 1.882420, -0.282814, 2.570048

1497889717.749048, 0.027794, -0.018021, 0.004887, 0.288000, 0.976000, -0.288000, -9.087502, 48.749222, -0.280860, 1.882360, -0.282665, 2.569994

1497889717.762406, 0.038485, -0.019242, 0.003360, 0.288000, 0.976000, -0.288000, -9.122191, 48.743032, -0.225150, 1.882444, -0.282494, 2.569909

1497889717.775763, 0.018937, -0.016188, 0.000916, 0.304000, 0.976000, -0.288000, -9.149970, 48.738011, -0.180518, 1.882260, -0.282601, 2.570104

1497889717.789141, 0.025351, -0.019548, 0.003665, 0.304000, 0.976000, -0.288000, -9.195910, 48.729542, -0.123296, 1.882179, -0.282727, 2.570221

1497889717.802542, 0.018631, -0.018326, 0.001222, 0.304000, 0.960000, -0.288000, -9.232446, 48.722727, -0.077770, 1.882096, -0.282907, 2.570273

1497889717.816113, 0.019853, -0.017715, 0.001833, 0.288000, 0.992000, -0.272000, -9.212191, 48.726403, -0.146554, 1.881549, -0.282675, 2.570783

1497889717.829503, 0.022297, -0.019242, 0.002749, 0.288000, 0.992000, -0.272000, -9.195889, 48.729284, -0.201864, 1.881047, -0.282455, 2.571294

1497889717.842873, 0.025962, -0.014966, 0.001527, 0.304000, 0.960000, -0.288000, -9.182785, 48.731551, -0.246295, 1.881070, -0.282658, 2.571457

1497889717.856245, 0.026267, -0.017715, 0.000916, 0.304000, 0.960000, -0.304000, -9.186105, 48.731146, -0.197909, 1.881407, -0.282809, 2.571055

1497889717.869611, 0.031154, -0.018021, 0.002749, 0.304000, 0.960000, -0.304000, -9.188768, 48.730786, -0.158992, 1.881804, -0.282978, 2.570626

1497889717.882959, 0.037568, -0.018937, 0.001527, 0.288000, 0.976000, -0.304000, -9.190538, 48.730418, -0.169087, 1.882186, -0.282753, 2.570026

1497889717.896319, 0.019853, -0.016799, 0.000611, 0.288000, 0.976000, -0.304000, -9.191943, 48.730125, -0.177101, 1.882320, -0.282528, 2.569475

1497889717.909682, 0.021380, -0.016799, 0.000611, 0.304000, 0.960000, -0.288000, -9.193061, 48.729891, -0.183472, 1.882263, -0.282711, 2.569617

1497889717.923039, 0.020159, -0.020159, 0.002749, 0.288000, 0.960000, -0.288000, -9.148696, 48.737933, -0.252069, 1.882203, -0.282608, 2.569482

1497889717.936403, 0.021991, -0.018021, 0.003665, 0.288000, 0.960000, -0.288000, -9.113119, 48.744282, -0.307051, 1.882161, -0.282527, 2.569395

1497889717.949758, 0.036346, -0.019548, 0.000916, 0.288000, 0.976000, -0.288000, -9.124316, 48.741874, -0.353370, 1.882219, -0.282329, 2.569415

1497889717.963117, 0.022297, -0.019242, -0.001222, 0.288000, 0.976000, -0.272000, -9.133383, 48.739889, -0.390905, 1.881783, -0.282144, 2.570001

1497889717.976484, 0.031460, -0.021686, 0.001527, 0.288000, 0.976000, -0.272000, -9.140708, 48.738263, -0.421244, 1.881489, -0.281988, 2.570556

1497889717.989863, 0.038179, -0.020464, 0.002749, 0.320000, 0.976000, -0.272000, -9.154722, 48.736143, -0.357288, 1.881307, -0.282443, 2.571531

1497889718.003223, 0.003971, -0.019242, 0.001222, 0.320000, 0.976000, -0.272000, -9.165846, 48.734399, -0.306469, 1.880674, -0.282872, 2.572479

1497889718.016588, 0.009774, -0.017410, 0.003971, 0.304000, 0.976000, -0.304000, -9.174689, 48.732972, -0.266034, 1.880711, -0.282976, 2.572163

1497889718.029954, 0.027184, -0.018021, 0.005192, 0.304000, 0.992000, -0.288000, -9.181688, 48.731598, -0.276066, 1.880592, -0.283040, 2.572422

1497889718.043312, 0.029322, -0.017715, 0.002749, 0.304000, 0.992000, -0.288000, -9.187269, 48.730500, -0.284064, 1.880500, -0.283074, 2.572698

1497889718.056675, 0.031460, -0.016188, 0.001222, 0.288000, 0.976000, -0.304000, -9.160994, 48.735273, -0.312392, 1.880818, -0.282854, 2.572174

1497889718.070034, 0.042455, -0.016493, 0.002138, 0.304000, 0.992000, -0.272000, -9.139910, 48.739081, -0.335119, 1.880592, -0.282927, 2.573001

1497889718.083399, 0.027184, -0.018326, 0.005498, 0.304000, 0.992000, -0.272000, -9.123000, 48.742120, -0.353342, 1.880180, -0.283032, 2.573781

1497889718.096781, 0.039401, -0.015577, 0.002749, 0.304000, 0.976000, -0.320000, -9.140426, 48.738910, -0.345776, 1.880904, -0.283100, 2.573019

1497889718.110157, 0.000611, -0.017104, 0.000611, 0.304000, 0.976000, -0.320000, -9.154315, 48.736345, -0.339745, 1.881108, -0.283134, 2.572264

1497889718.123516, -0.003360, -0.021380, 0.000611, 0.304000, 0.976000, -0.272000, -9.126696, 48.741833, -0.292165, 1.880377, -0.283240, 2.572925

1497889718.136956, 0.029627, -0.015882, 0.003360, 0.304000, 0.976000, -0.288000, -9.104729, 48.746153, -0.254336, 1.880378, -0.283364, 2.573084

1497889718.150335, -0.006720, -0.016799, 0.000916, 0.304000, 0.976000, -0.288000, -9.087238, 48.749565, -0.224222, 1.879901, -0.283451, 2.573212

1497889718.163703, 0.040623, -0.017715, 0.000611, 0.304000, 0.960000, -0.320000, -9.113816, 48.744286, -0.285018, 1.880749, -0.283560, 2.572316

1497889718.177070, 0.047342, -0.018021, 0.001222, 0.272000, 0.960000, -0.256000, -9.135169, 48.739978, -0.333892, 1.880439, -0.283198, 2.573032

1497889718.190434, 0.030238, -0.017104, 0.004581, 0.272000, 0.960000, -0.256000, -9.160339, 48.735414, -0.309608, 1.879912, -0.282889, 2.573723

1497889718.203814, 0.024435, -0.019242, 0.003054, 0.272000, 0.960000, -0.272000, -9.180492, 48.731742, -0.290161, 1.879641, -0.282521, 2.573823

1497889718.217218, 0.007330, -0.020159, 0.000305, 0.272000, 0.960000, -0.272000, -9.196624, 48.728790, -0.274591, 1.879151, -0.282123, 2.573916

1497889718.230646, 0.025045, -0.021991, 0.003054, 0.288000, 0.960000, -0.256000, -9.128697, 48.741744, -0.239941, 1.878610, -0.282099, 2.574714

1497889718.244053, 0.027794, -0.018021, 0.004581, 0.288000, 0.976000, -0.304000, -9.074771, 48.751940, -0.212440, 1.878930, -0.281933, 2.574008

1497889718.257473, 0.054672, -0.018021, 0.000916, 0.288000, 0.976000, -0.304000, -9.053978, 48.755370, -0.296022, 1.879593, -0.281725, 2.573377

1497889718.270900, 0.028100, -0.022297, 0.000916, 0.272000, 0.992000, -0.288000, -9.037272, 48.758016, -0.363092, 1.879518, -0.281162, 2.573064

1497889718.284343, 0.012217, -0.018326, 0.003665, 0.320000, 0.976000, -0.288000, -9.023863, 48.760070, -0.416878, 1.879324, -0.281612, 2.573496

1497889718.297797, 0.012523, -0.016799, 0.004887, 0.320000, 0.976000, -0.288000, -9.000361, 48.764737, -0.377090, 1.879134, -0.282074, 2.573900

1497889718.311224, 0.037263, -0.016493, 0.002443, 0.304000, 0.976000, -0.288000, -8.981431, 48.768464, -0.345050, 1.879261, -0.282207, 2.574046

1497889718.324649, 0.001833, -0.019548, 0.000305, 0.304000, 0.976000, -0.288000, -9.028718, 48.760175, -0.275409, 1.878928, -0.282298, 2.574131

1497889718.338123, 0.043677, -0.018937, 0.002749, 0.304000, 0.992000, -0.272000, -9.066304, 48.753482, -0.220027, 1.878770, -0.282376, 2.574775

1497889718.351533, 0.036652, -0.019548, 0.002138, 0.288000, 0.960000, -0.304000, -9.096217, 48.748089, -0.175933, 1.879300, -0.282248, 2.573967

1497889718.364984, 0.029322, -0.020159, 0.001833, 0.288000, 0.960000, -0.304000, -9.063162, 48.754218, -0.183335, 1.879727, -0.282116, 2.573157

1497889718.378384, 0.014050, -0.018021, 0.000305, 0.288000, 0.976000, -0.288000, -9.036602, 48.759125, -0.189282, 1.879536, -0.281922, 2.572976

1497889718.391806, 0.020769, -0.019548, 0.001527, 0.288000, 0.976000, -0.288000, -9.045743, 48.757320, -0.215841, 1.879446, -0.281742, 2.572794

1497889718.405207, 0.025656, -0.016493, 0.003054, 0.288000, 0.976000, -0.288000, -9.053119, 48.755851, -0.237276, 1.879411, -0.281597, 2.572667

1497889718.418607, 0.035736, -0.016493, -0.001222, 0.288000, 0.960000, -0.288000, -9.059061, 48.754660, -0.254546, 1.879596, -0.281480, 2.572499

1497889718.432072, 0.022907, -0.019548, 0.002443, 0.288000, 0.960000, -0.288000, -9.075853, 48.751686, -0.224183, 1.879625, -0.281399, 2.572264

1497889718.445482, 0.013744, -0.019548, 0.000305, 0.320000, 0.992000, -0.288000, -9.089175, 48.749309, -0.200089, 1.879359, -0.281714, 2.572665

1497889718.458911, 0.013134, -0.018326, -0.000000, 0.288000, 0.976000, -0.272000, -9.068764, 48.752906, -0.244766, 1.878862, -0.281556, 2.573064

1497889718.472325, 0.019853, -0.020769, 0.003360, 0.288000, 0.976000, -0.272000, -9.052430, 48.755749, -0.280502, 1.878474, -0.281435, 2.573427

1497889718.485731, 0.039401, -0.015882, 0.002443, 0.320000, 0.976000, -0.288000, -9.039360, 48.758001, -0.309089, 1.878646, -0.281873, 2.573825

1497889718.499132, 0.028100, -0.019548, 0.001527, 0.304000, 0.976000, -0.288000, -9.004436, 48.764305, -0.333151, 1.878672, -0.281986, 2.573939

1497889718.512544, 0.036346, -0.018021, 0.000305, 0.304000, 0.976000, -0.288000, -8.976311, 48.769353, -0.352525, 1.878799, -0.282089, 2.574076

1497889718.525992, 0.023518, -0.019853, 0.004887, 0.288000, 0.960000, -0.288000, -9.023517, 48.761103, -0.281561, 1.878856, -0.282025, 2.573812

1497889718.539418, 0.050702, -0.015882, 0.003665, 0.288000, 0.960000, -0.288000, -9.061084, 48.754429, -0.225059, 1.879254, -0.281963, 2.573589

1497889718.552835, -0.000305, -0.020464, 0.001222, 0.272000, 0.960000, -0.288000, -9.091010, 48.749045, -0.180028, 1.878987, -0.281556, 2.573035

1497889718.566301, -0.012828, -0.018937, -0.000305, 0.288000, 0.976000, -0.272000, -9.076191, 48.751784, -0.185855, 1.878157, -0.281394, 2.573382

1497889718.579718, 0.022907, -0.016493, 0.004581, 0.288000, 0.976000, -0.272000, -9.064409, 48.753959, -0.190487, 1.877810, -0.281307, 2.573733

1497889718.593146, 0.018937, -0.018326, 0.004887, 0.304000, 0.976000, -0.288000, -8.996372, 48.766246, -0.258485, 1.877732, -0.281478, 2.573796

1497889718.606563, 0.040012, -0.018021, 0.001833, 0.272000, 0.976000, -0.304000, -8.941547, 48.776007, -0.313253, 1.878233, -0.280999, 2.572852

1497889718.619979, 0.024740, -0.019853, 0.002138, 0.272000, 0.976000, -0.304000, -8.897432, 48.783771, -0.357305, 1.878530, -0.280526, 2.571911

1497889718.633375, 0.013134, -0.018021, 0.001222, 0.304000, 0.976000, -0.288000, -8.920424, 48.780045, -0.285514, 1.878355, -0.280669, 2.572018

1497889718.646824, 0.011912, -0.019548, -0.000916, 0.304000, 0.976000, -0.288000, -8.938733, 48.776995, -0.228303, 1.878172, -0.280775, 2.572081

1497889718.660287, 0.021380, -0.019853, 0.003054, 0.320000, 0.976000, -0.256000, -8.974496, 48.770696, -0.160989, 1.877538, -0.281298, 2.573350

1497889718.673766, 0.018631, -0.017410, 0.000611, 0.304000, 0.976000, -0.288000, -9.002819, 48.765622, -0.107650, 1.877454, -0.281418, 2.573353

1497889718.687213, 0.039095, -0.021075, 0.001527, 0.304000, 0.976000, -0.288000, -9.025297, 48.761542, -0.065302, 1.877654, -0.281533, 2.573286

1497889718.700606, 0.052229, -0.018326, 0.003971, 0.288000, 0.976000, -0.304000, -9.006342, 48.764766, -0.178012, 1.878314, -0.281371, 2.572555

1497889718.713990, 0.026878, -0.020769, 0.003360, 0.304000, 0.976000, -0.272000, -8.991046, 48.767173, -0.268761, 1.878037, -0.281547, 2.573138

1497889718.727362, 0.035125, -0.019242, 0.003665, 0.304000, 0.976000, -0.272000, -9.051650, 48.756391, -0.173758, 1.877867, -0.281730, 2.573687

1497889718.740735, 0.025656, -0.017715, 0.001833, 0.304000, 0.976000, -0.304000, -9.100276, 48.747551, -0.097477, 1.878167, -0.281828, 2.573212

1497889718.754110, -0.021380, -0.015272, -0.000916, 0.304000, 0.976000, -0.320000, -9.139269, 48.740340, -0.036273, 1.878127, -0.281878, 2.572287

1497889718.767476, 0.046731, -0.017104, 0.002749, 0.288000, 0.976000, -0.320000, -9.183974, 48.731941, -0.029196, 1.878999, -0.281678, 2.571090

1497889718.780834, 0.031765, -0.021075, 0.000916, 0.288000, 0.960000, -0.272000, -9.219499, 48.725235, -0.023572, 1.878849, -0.281600, 2.571318

1497889718.794207, 0.030238, -0.019242, 0.000611, 0.288000, 0.960000, -0.272000, -9.285611, 48.712647, -0.061067, 1.878677, -0.281528, 2.571618

1497889718.807682, 0.043677, -0.020464, 0.003665, 0.304000, 0.960000, -0.288000, -9.193446, 48.730078, -0.091209, 1.879006, -0.281753, 2.571595

1497889718.821251, 0.019548, -0.020464, 0.003971, 0.304000, 0.960000, -0.304000, -9.119425, 48.743933, -0.115409, 1.879314, -0.281950, 2.571059

1497889718.834709, 0.008858, -0.020769, 0.003665, 0.304000, 0.960000, -0.304000, -9.088475, 48.749762, -0.092826, 1.879472, -0.282137, 2.570505

1497889718.848107, 0.016493, -0.017104, 0.002138, 0.304000, 0.960000, -0.272000, -9.063608, 48.754422, -0.074685, 1.879108, -0.282379, 2.571006

1497889718.861491, 0.046120, -0.019853, 0.002443, 0.304000, 0.976000, -0.288000, -9.043645, 48.758149, -0.060123, 1.879362, -0.282492, 2.571003

1497889718.874856, 0.012217, -0.015272, 0.002138, 0.304000, 0.976000, -0.288000, -9.127321, 48.742542, -0.069500, 1.879150, -0.282617, 2.571102

1497889718.888225, -0.004276, -0.013439, 0.002138, 0.288000, 0.976000, -0.288000, -9.194198, 48.729961, -0.076997, 1.878716, -0.282455, 2.571005

1497889718.901586, 0.026878, -0.021380, 0.006109, 0.288000, 0.976000, -0.288000, -9.134496, 48.741087, -0.125240, 1.878732, -0.282314, 2.570798

1497889718.914949, 0.030849, -0.020159, 0.003054, 0.288000, 0.992000, -0.288000, -9.086734, 48.749899, -0.163822, 1.878703, -0.282066, 2.570705

1497889718.928308, 0.061697, -0.018631, 0.004887, 0.288000, 0.944000, -0.288000, -9.048524, 48.756893, -0.194679, 1.879348, -0.282090, 2.570401

1497889718.941661, 0.033292, -0.019242, 0.003665, 0.288000, 0.944000, -0.288000, -9.048546, 48.756871, -0.198917, 1.879609, -0.282096, 2.570104

1497889718.955023, 0.008858, -0.018631, 0.002138, 0.304000, 0.960000, -0.272000, -9.048563, 48.756854, -0.202327, 1.879148, -0.282334, 2.570673

1497889718.968381, 0.042761, -0.018631, 0.000916, 0.304000, 0.976000, -0.304000, -9.034235, 48.759785, -0.119224, 1.879647, -0.282405, 2.570238

1497889718.981742, -0.011912, -0.015272, 0.000305, 0.304000, 0.976000, -0.304000, -9.022830, 48.762014, -0.053180, 1.879409, -0.282480, 2.569810

1497889718.995096, 0.011912, -0.017410, 0.003971, 0.288000, 0.976000, -0.288000, -9.013742, 48.763723, -0.000623, 1.879198, -0.282327, 2.569553

1497889719.008453, 0.028100, -0.019548, 0.003665, 0.288000, 0.976000, -0.288000, -9.006494, 48.765044, -0.042809, 1.879211, -0.282164, 2.569300

1497889719.021818, -0.003971, -0.019548, 0.000916, 0.304000, 0.960000, -0.304000, -9.000711, 48.766070, -0.076445, 1.879195, -0.282318, 2.568765

1497889719.035217, 0.055283, -0.020769, 0.003665, 0.272000, 0.976000, -0.288000, -8.966847, 48.772209, -0.124879, 1.879572, -0.281857, 2.568280

1497889719.048596, 0.008552, -0.018021, 0.005192, 0.272000, 0.976000, -0.288000, -8.939553, 48.777103, -0.163901, 1.879319, -0.281435, 2.567850

1497889719.061970, 0.012828, -0.020464, 0.003054, 0.304000, 0.960000, -0.288000, -8.917588, 48.781008, -0.195297, 1.879226, -0.281655, 2.567865

1497889719.075329, 0.014050, -0.021380, 0.004276, 0.288000, 0.960000, -0.304000, -8.954843, 48.774387, -0.135007, 1.879458, -0.281561, 2.567075

1497889719.088706, -0.003360, -0.020464, -0.001222, 0.288000, 0.960000, -0.304000, -8.984503, 48.769042, -0.086988, 1.879447, -0.281404, 2.566318

1497889719.102088, 0.032681, -0.021991, 0.000611, 0.304000, 0.976000, -0.256000, -9.024350, 48.761634, -0.111619, 1.878924, -0.281584, 2.567453

1497889719.115459, 0.030849, -0.020159, 0.003054, 0.304000, 0.976000, -0.256000, -9.055996, 48.755718, -0.131184, 1.878382, -0.281798, 2.568605

1497889719.128819, 0.031154, -0.016799, 0.003971, 0.288000, 0.976000, -0.288000, -9.081166, 48.750991, -0.146748, 1.878442, -0.281662, 2.568506

1497889719.142184, 0.039706, -0.017104, 0.003360, 0.288000, 0.992000, -0.272000, -8.999961, 48.765659, -0.243845, 1.878223, -0.281478, 2.569037

1497889719.155545, 0.015272, -0.020769, 0.004887, 0.288000, 0.992000, -0.272000, -8.934558, 48.777231, -0.321995, 1.877703, -0.281302, 2.569532

1497889719.168904, 0.034819, -0.014355, 0.005192, 0.304000, 0.960000, -0.288000, -8.960008, 48.772943, -0.257968, 1.877910, -0.281576, 2.569642

1497889719.182289, 0.036041, -0.018631, 0.003054, 0.304000, 0.960000, -0.272000, -8.980368, 48.769443, -0.206715, 1.877841, -0.281836, 2.570192

1497889719.195709, 0.014355, -0.017104, 0.003360, 0.304000, 0.960000, -0.272000, -8.996655, 48.766597, -0.165692, 1.877484, -0.282099, 2.570729

1497889719.209126, 0.041539, -0.016799, 0.002138, 0.288000, 0.960000, -0.288000, -9.066920, 48.753684, -0.132320, 1.877789, -0.282014, 2.570503

1497889719.222526, 0.010079, -0.019548, -0.000305, 0.288000, 0.960000, -0.288000, -9.122723, 48.743338, -0.105810, 1.877682, -0.281888, 2.570262

1497889719.236111, 0.011606, -0.017104, 0.002443, 0.288000, 0.976000, -0.272000, -9.095842, 48.748184, -0.168821, 1.877198, -0.281762, 2.570670

1497889719.249544, 0.011912, -0.015882, 0.000611, 0.304000, 0.960000, -0.272000, -9.074247, 48.752007, -0.219412, 1.876814, -0.281998, 2.571291

1497889719.262953, 0.027489, -0.018326, 0.001222, 0.304000, 0.960000, -0.272000, -9.056913, 48.755030, -0.260003, 1.876652, -0.282228, 2.571885

1497889719.276385, 0.034208, -0.018631, 0.000611, 0.304000, 0.928000, -0.288000, -9.045115, 48.757267, -0.251107, 1.877075, -0.282582, 2.571789

1497889719.289796, 0.025656, -0.016799, 0.000611, 0.304000, 0.976000, -0.288000, -9.035619, 48.759064, -0.243947, 1.877089, -0.282681, 2.571935

1497889719.303197, 0.026878, -0.020159, 0.003054, 0.304000, 0.976000, -0.288000, -9.060429, 48.754494, -0.237055, 1.877133, -0.282795, 2.572031

1497889719.316638, 0.028100, -0.017410, 0.003360, 0.304000, 0.960000, -0.304000, -9.080181, 48.750846, -0.231567, 1.877576, -0.282976, 2.571589

1497889719.330074, 0.013744, -0.021991, 0.004581, 0.304000, 0.960000, -0.304000, -9.095922, 48.747932, -0.227194, 1.877840, -0.283150, 2.571094

1497889719.343509, 0.027184, -0.016799, 0.003360, 0.272000, 0.976000, -0.336000, -9.019665, 48.762011, -0.245310, 1.878776, -0.282634, 2.569219

1497889719.356919, 0.025045, -0.017410, 0.000916, 0.272000, 0.976000, -0.272000, -8.958499, 48.773210, -0.259837, 1.878440, -0.282176, 2.569403

1497889719.370338, 0.024435, -0.019853, 0.002138, 0.272000, 0.976000, -0.272000, -8.939625, 48.776822, -0.230156, 1.878113, -0.281733, 2.569518

1497889719.383753, 0.018326, -0.017410, 0.004887, 0.288000, 0.976000, -0.288000, -8.924407, 48.779716, -0.206230, 1.878014, -0.281607, 2.569362

1497889719.397178, 0.029322, -0.016188, 0.002749, 0.288000, 0.944000, -0.304000, -8.912156, 48.782033, -0.186971, 1.878548, -0.281598, 2.568552

1497889719.410924, 0.021380, -0.016493, -0.000000, 0.288000, 0.944000, -0.304000, -8.925491, 48.779725, -0.149302, 1.878973, -0.281552, 2.567743

1497889719.424347, 0.012828, -0.016799, 0.000916, 0.304000, 0.976000, -0.288000, -8.936083, 48.777868, -0.119370, 1.878781, -0.281675, 2.567846

1497889719.437792, 0.030543, -0.016493, 0.004887, 0.304000, 0.976000, -0.288000, -8.939630, 48.777225, -0.116793, 1.878831, -0.281846, 2.567935

1497889719.451221, 0.025656, -0.018631, 0.000305, 0.304000, 0.960000, -0.304000, -8.942464, 48.776710, -0.114734, 1.879208, -0.282003, 2.567440

1497889719.464608, 0.030849, -0.021075, 0.004887, 0.304000, 0.960000, -0.272000, -8.944728, 48.776299, -0.113090, 1.879055, -0.282266, 2.567918

1497889719.478004, 0.019242, -0.016799, 0.001833, 0.304000, 0.960000, -0.272000, -8.950220, 48.775177, -0.154604, 1.878735, -0.282504, 2.568485

1497889719.491393, 0.028711, -0.018937, 0.007330, 0.272000, 0.960000, -0.272000, -8.954643, 48.774248, -0.188068, 1.878548, -0.282198, 2.568509

1497889719.504776, 0.036041, -0.018021, 0.006109, 0.288000, 0.992000, -0.304000, -8.976229, 48.770410, -0.150495, 1.878887, -0.281972, 2.567914

1497889719.518157, 0.028711, -0.018326, 0.001527, 0.288000, 0.992000, -0.304000, -8.993443, 48.767322, -0.120524, 1.879118, -0.281692, 2.567334

1497889719.531534, 0.016493, -0.019853, 0.000916, 0.320000, 0.960000, -0.304000, -9.007178, 48.764840, -0.096605, 1.879375, -0.282145, 2.567096

1497889719.544925, 0.018631, -0.018326, 0.001527, 0.320000, 0.960000, -0.304000, -8.976214, 48.770499, -0.119446, 1.879651, -0.282601, 2.566882

1497889719.558293, 0.019548, -0.018326, 0.076664, 0.304000, 0.944000, -0.272000, -8.951589, 48.774977, -0.137608, 1.879503, -0.283845, 2.567057

1497889719.571666, 0.030849, -0.016493, 0.004276, 0.304000, 0.976000, -0.288000, -8.931983, 48.778528, -0.152067, 1.879539, -0.283966, 2.567185

1497889719.585061, 0.035430, -0.018631, 0.002443, 0.304000, 0.976000, -0.288000, -8.916358, 48.781350, -0.163590, 1.879641, -0.284052, 2.567292

1497889719.598439, 0.018631, -0.020159, -0.000305, 0.304000, 0.960000, -0.288000, -8.903894, 48.783594, -0.172779, 1.879613, -0.284179, 2.567316

1497889719.611818, 0.029627, -0.015577, -0.001222, 0.288000, 0.976000, -0.288000, -8.953439, 48.774497, -0.180557, 1.879618, -0.283936, 2.567249

1497889719.625187, 0.020464, -0.015882, 0.002138, 0.288000, 0.976000, -0.288000, -8.993165, 48.767165, -0.186794, 1.879508, -0.283738, 2.567187

1497889719.638551, 0.031460, -0.017715, 0.001833, 0.304000, 0.976000, -0.288000, -9.025004, 48.761263, -0.191794, 1.879552, -0.283826, 2.567371

1497889719.651919, 0.026573, -0.019853, 0.001222, 0.304000, 0.976000, -0.288000, -8.983983, 48.768974, -0.153333, 1.879539, -0.283896, 2.567484

1497889719.665288, 0.041233, -0.019853, 0.001527, 0.272000, 0.976000, -0.288000, -8.951306, 48.775069, -0.122703, 1.879719, -0.283380, 2.567039

1497889719.678654, 0.025656, -0.018631, 0.002443, 0.320000, 1.008000, -0.304000, -8.913959, 48.781859, -0.140682, 1.879807, -0.283572, 2.567023

1497889719.692023, 0.054062, -0.016799, 0.000916, 0.320000, 1.008000, -0.304000, -8.883891, 48.787300, -0.155154, 1.880258, -0.283748, 2.567034

1497889719.705401, -0.019242, -0.019242, 0.001833, 0.304000, 0.960000, -0.304000, -8.859714, 48.791658, -0.166789, 1.880021, -0.283883, 2.566543

1497889719.718761, 0.019853, -0.019242, 0.001833, 0.272000, 0.992000, -0.320000, -8.916826, 48.781220, -0.176152, 1.880425, -0.283258, 2.565206

1497889719.732096, 0.069028, -0.018021, 0.001222, 0.272000, 0.992000, -0.320000, -8.962660, 48.772792, -0.183668, 1.881457, -0.282642, 2.563942

1497889719.745467, -0.031460, -0.014050, 0.001527, 0.320000, 0.960000, -0.256000, -9.028619, 48.760683, -0.167681, 1.880126, -0.283222, 2.565413

1497889719.758834, 0.052229, -0.018021, 0.003971, 0.320000, 0.960000, -0.256000, -9.080999, 48.750997, -0.154981, 1.879934, -0.283806, 2.566802

1497889719.772217, 0.087965, -0.018631, 0.002749, 0.288000, 0.992000, -0.352000, -9.122659, 48.743249, -0.144879, 1.881811, -0.283455, 2.564885

1497889719.785596, -0.014050, -0.018021, 0.003360, 0.288000, 0.960000, -0.256000, -9.066205, 48.753667, -0.179413, 1.880687, -0.283427, 2.565850

1497889719.799000, 0.048258, -0.014661, 0.003971, 0.288000, 0.960000, -0.256000, -9.020820, 48.761974, -0.207168, 1.880393, -0.283420, 2.566838

1497889719.812448, 0.034819, -0.016493, -0.001833, 0.304000, 0.976000, -0.288000, -9.001236, 48.765586, -0.208792, 1.880459, -0.283473, 2.567061

1497889719.826027, 0.005498, -0.017410, 0.000305, 0.304000, 0.960000, -0.288000, -8.985468, 48.768489, -0.210099, 1.880235, -0.283630, 2.567176

1497889719.839447, 0.035430, -0.018326, 0.003360, 0.304000, 0.960000, -0.288000, -8.972788, 48.770819, -0.211150, 1.880415, -0.283819, 2.567262

1497889719.852827, 0.024740, -0.016799, 0.002138, 0.304000, 0.976000, -0.288000, -8.973837, 48.770919, -0.126389, 1.880351, -0.283912, 2.567392

1497889719.866251, 0.016188, -0.015577, 0.002443, 0.304000, 0.976000, -0.288000, -8.974652, 48.770897, -0.058979, 1.880174, -0.284011, 2.567488

1497889719.879618, 0.043677, -0.017715, 0.002138, 0.288000, 0.960000, -0.288000, -8.973822, 48.771003, -0.089608, 1.880454, -0.283883, 2.567249

1497889719.892990, 0.020769, -0.016493, 0.001222, 0.288000, 0.960000, -0.288000, -8.973155, 48.771075, -0.114104, 1.880423, -0.283751, 2.567050

1497889719.906366, 0.016493, -0.014661, 0.000611, 0.288000, 0.960000, -0.288000, -8.972620, 48.771123, -0.133696, 1.880330, -0.283622, 2.566894

1497889719.919726, 0.008552, -0.018326, 0.000611, 0.320000, 0.976000, -0.288000, -8.957662, 48.773825, -0.150073, 1.880065, -0.283984, 2.567263

1497889719.933086, 0.014966, -0.015577, 0.006109, 0.288000, 0.976000, -0.304000, -8.945594, 48.775998, -0.163285, 1.880180, -0.283809, 2.566645

1497889719.946469, 0.049786, -0.016799, 0.005498, 0.288000, 0.976000, -0.304000, -8.952159, 48.775021, -0.066931, 1.880754, -0.283625, 2.565965

1497889719.959827, 0.023518, -0.019548, 0.002443, 0.304000, 0.976000, -0.288000, -8.957352, 48.774112, 0.009641, 1.880677, -0.283714, 2.565987

1497889719.973214, 0.022602, -0.019242, -0.000000, 0.304000, 0.976000, -0.288000, -8.961469, 48.773306, 0.070574, 1.880586, -0.283772, 2.565984

1497889719.986602, 0.014661, -0.018021, 0.000611, 0.288000, 0.960000, -0.272000, -8.939857, 48.777321, 0.014029, 1.880170, -0.283659, 2.566216

1497889719.999966, 0.015577, -0.018937, 0.003360, 0.288000, 0.976000, -0.272000, -8.922638, 48.780466, -0.030999, 1.879693, -0.283502, 2.566517

1497889720.013344, 0.022602, -0.017410, 0.002443, 0.288000, 0.976000, -0.272000, -8.877605, 48.788568, -0.109507, 1.879311, -0.283342, 2.566872

1497889720.026707, 0.025962, -0.018326, 0.002443, 0.304000, 0.960000, -0.272000, -8.841203, 48.794995, -0.172931, 1.879078, -0.283560, 2.567408

1497889720.040068, 0.032681, -0.021991, 0.005192, 0.288000, 0.976000, -0.288000, -8.811838, 48.800098, -0.224070, 1.879164, -0.283383, 2.567199

1497889720.053446, 0.029627, -0.017410, 0.007330, 0.288000, 0.976000, -0.288000, -8.910639, 48.782166, -0.221418, 1.879195, -0.283255, 2.567085

1497889720.066808, 0.021380, -0.013134, 0.005192, 0.288000, 0.960000, -0.272000, -8.989269, 48.767748, -0.219306, 1.878882, -0.283232, 2.567518

1497889720.080163, 0.027794, -0.018021, 0.003054, 0.288000, 0.960000, -0.288000, -8.980242, 48.769660, -0.154072, 1.878982, -0.283131, 2.567316

1497889720.093640, 0.021380, -0.017715, 0.001527, 0.272000, 1.008000, -0.288000, -8.973053, 48.771120, -0.102202, 1.878732, -0.282493, 2.567048

1497889720.107036, 0.034208, -0.018631, 0.005498, 0.288000, 0.976000, -0.288000, -8.967324, 48.772243, -0.060908, 1.878835, -0.282355, 2.566844

1497889720.120427, 0.040012, -0.017410, 0.001833, 0.288000, 0.976000, -0.288000, -8.886880, 48.786759, -0.154184, 1.879002, -0.282178, 2.566704

1497889720.133809, 0.011301, -0.017104, 0.000916, 0.272000, 0.960000, -0.288000, -8.822206, 48.798201, -0.229127, 1.878880, -0.281776, 2.566249

1497889720.147177, 0.030849, -0.016188, -0.000305, 0.304000, 0.960000, -0.288000, -8.843521, 48.794358, -0.225978, 1.879012, -0.281965, 2.566355

1497889720.160543, 0.010690, -0.017410, 0.001833, 0.304000, 0.960000, -0.288000, -8.860612, 48.791269, -0.223453, 1.878885, -0.282172, 2.566440

1497889720.173911, 0.027489, -0.018326, 0.003054, 0.304000, 0.992000, -0.288000, -8.874309, 48.788788, -0.221429, 1.878806, -0.282224, 2.566658

1497889720.187274, 0.056505, -0.016799, 0.001222, 0.304000, 0.960000, -0.288000, -8.966406, 48.772130, -0.176532, 1.879280, -0.282420, 2.566759

1497889720.200644, 0.022602, -0.019853, -0.000611, 0.304000, 0.960000, -0.288000, -9.039388, 48.758772, -0.140939, 1.879310, -0.282578, 2.566832

1497889720.214009, 0.034514, -0.021380, 0.002749, 0.304000, 0.960000, -0.256000, -9.097333, 48.748068, -0.112671, 1.878897, -0.282845, 2.567914

1497889720.227383, 0.025962, -0.021075, 0.003054, 0.304000, 0.960000, -0.256000, -9.143410, 48.739493, -0.090187, 1.878379, -0.283112, 2.568980

1497889720.240780, 0.011606, -0.016188, 0.000916, 0.304000, 0.976000, -0.288000, -9.180094, 48.732627, -0.072282, 1.878181, -0.283206, 2.569134

1497889720.254216, 0.011912, -0.015882, 0.002443, 0.288000, 0.976000, -0.288000, -9.119486, 48.744023, -0.058388, 1.877989, -0.283027, 2.568999

1497889720.267650, 0.021380, -0.018326, 0.004887, 0.288000, 0.976000, -0.288000, -9.070565, 48.753163, -0.047175, 1.877937, -0.282871, 2.568797

1497889720.281088, 0.023213, -0.017104, 0.005498, 0.304000, 0.976000, -0.288000, -9.031147, 48.760488, -0.038142, 1.877909, -0.283024, 2.568841

1497889720.294493, 0.016188, -0.014966, 0.000611, 0.288000, 0.976000, -0.288000, -9.041967, 48.758488, -0.030763, 1.877773, -0.282828, 2.568681

1497889720.308061, 0.025656, -0.020464, 0.002138, 0.288000, 0.976000, -0.288000, -9.050605, 48.756889, -0.024872, 1.877791, -0.282633, 2.568442

1497889720.321527, 0.022907, -0.021075, 0.005192, 0.272000, 0.944000, -0.256000, -9.001622, 48.765891, -0.083196, 1.877327, -0.282400, 2.568867

1497889720.334966, 0.028405, -0.019853, 0.005498, 0.272000, 0.944000, -0.256000, -8.962321, 48.773027, -0.129974, 1.876940, -0.282182, 2.569315

1497889720.348458, 0.027489, -0.021686, 0.000611, 0.288000, 0.976000, -0.288000, -8.930807, 48.778693, -0.167471, 1.876999, -0.281976, 2.569100

1497889720.361887, 0.026573, -0.016493, 0.002138, 0.288000, 0.976000, -0.272000, -8.957293, 48.773422, -0.261638, 1.876721, -0.281848, 2.569552

1497889720.375400, 0.046120, -0.016493, 0.004887, 0.288000, 0.976000, -0.272000, -8.978626, 48.769033, -0.337571, 1.876713, -0.281758, 2.570043

1497889720.388861, 0.028100, -0.017104, 0.003665, 0.320000, 0.960000, -0.288000, -8.948600, 48.775190, -0.227380, 1.876869, -0.282285, 2.570326

1497889720.402319, 0.024129, -0.019853, 0.000611, 0.304000, 0.976000, -0.304000, -8.924650, 48.779908, -0.139610, 1.877178, -0.282349, 2.569849

1497889720.415778, -0.008858, -0.015272, 0.001833, 0.304000, 0.976000, -0.304000, -8.905536, 48.783551, -0.069640, 1.877029, -0.282445, 2.569383

1497889720.429226, 0.012828, -0.022907, 0.002443, 0.288000, 0.976000, -0.320000, -8.915179, 48.781638, -0.140239, 1.877501, -0.282208, 2.568119

1497889720.442672, 0.035736, -0.018326, 0.001833, 0.288000, 0.976000, -0.320000, -8.922872, 48.780036, -0.196660, 1.878247, -0.281985, 2.566983

1497889720.456168, 0.023518, -0.017410, 0.001222, 0.304000, 0.976000, -0.256000, -8.907604, 48.782720, -0.221585, 1.877615, -0.282179, 2.568193

1497889720.469674, 0.027184, -0.018326, 0.001222, 0.304000, 0.976000, -0.288000, -8.895308, 48.784868, -0.241654, 1.877648, -0.282287, 2.568329

1497889720.483122, 0.016493, -0.017410, 0.002749, 0.304000, 0.976000, -0.288000, -8.885419, 48.786588, -0.257793, 1.877535, -0.282416, 2.568477

1497889720.496554, 0.018021, -0.016799, 0.006414, 0.304000, 0.976000, -0.272000, -8.899228, 48.784317, -0.206084, 1.877148, -0.282626, 2.569101

1497889720.509972, 0.026878, -0.022602, -0.000611, 0.304000, 0.960000, -0.272000, -8.910225, 48.782466, -0.164874, 1.876984, -0.282802, 2.569570

1497889720.523360, 0.024129, -0.019242, 0.003665, 0.304000, 0.960000, -0.272000, -8.877270, 48.788443, -0.173831, 1.876779, -0.283041, 2.570050

1497889720.536754, 0.026267, -0.017410, 0.001833, 0.320000, 0.960000, -0.304000, -8.851087, 48.793173, -0.180946, 1.877203, -0.283488, 2.569777

1497889720.550132, 0.023213, -0.018631, 0.001527, 0.320000, 0.960000, -0.304000, -8.830257, 48.796926, -0.186606, 1.877582, -0.283917, 2.569491

1497889720.563550, 0.022907, -0.016799, 0.003054, 0.320000, 0.976000, -0.272000, -8.768511, 48.807854, -0.234255, 1.877263, -0.284346, 2.570308

1497889720.576970, 0.025351, -0.017104, 0.002443, 0.304000, 0.960000, -0.304000, -8.718780, 48.816563, -0.272620, 1.877665, -0.284486, 2.569785

1497889720.590371, 0.019548, -0.019853, 0.003054, 0.304000, 0.960000, -0.304000, -8.784262, 48.805096, -0.218207, 1.877992, -0.284619, 2.569227

1497889720.603743, 0.027489, -0.020769, -0.001222, 0.288000, 0.960000, -0.304000, -8.836553, 48.795830, -0.174739, 1.878418, -0.284401, 2.568414

1497889720.617207, 0.021686, -0.016493, 0.000305, 0.272000, 0.976000, -0.288000, -8.878325, 48.788359, -0.140005, 1.878353, -0.283872, 2.567976

1497889720.630598, 0.027794, -0.021075, 0.003054, 0.272000, 0.976000, -0.288000, -8.961212, 48.773161, -0.153894, 1.878386, -0.283371, 2.567524

1497889720.643972, 0.032070, -0.020464, 0.003665, 0.304000, 0.992000, -0.272000, -9.027110, 48.760972, -0.164939, 1.878089, -0.283435, 2.568226

1497889720.657358, 0.021075, -0.017104, 0.000611, 0.304000, 0.992000, -0.272000, -8.978046, 48.769916, -0.195674, 1.877637, -0.283471, 2.568972

1497889720.670740, 0.018021, -0.016188, 0.001527, 0.304000, 0.976000, -0.336000, -8.938554, 48.777064, -0.220407, 1.878427, -0.283497, 2.567667

1497889720.684121, 0.011301, -0.017410, 0.001527, 0.288000, 0.992000, -0.288000, -8.906802, 48.782778, -0.240288, 1.878136, -0.283218, 2.567654

1497889720.697500, 0.025962, -0.016493, 0.001527, 0.288000, 0.992000, -0.288000, -8.914672, 48.781551, -0.192744, 1.878041, -0.282948, 2.567624

1497889720.710877, 0.027184, -0.019853, 0.000916, 0.304000, 0.960000, -0.288000, -8.920975, 48.780535, -0.154628, 1.878157, -0.283114, 2.567635

1497889720.724238, 0.033598, -0.018937, 0.004581, 0.304000, 0.944000, -0.272000, -8.962298, 48.772923, -0.165675, 1.878142, -0.283445, 2.568108

1497889720.737717, 0.023518, -0.018631, 0.004887, 0.304000, 0.944000, -0.272000, -8.995136, 48.766847, -0.174455, 1.877999, -0.283775, 2.568591

1497889720.751118, 0.032070, -0.016799, 0.004581, 0.304000, 0.976000, -0.304000, -9.021265, 48.761995, -0.181442, 1.878381, -0.283870, 2.568240

1497889720.764499, 0.039401, -0.019242, 0.002138, 0.304000, 0.976000, -0.304000, -8.978088, 48.769760, -0.229611, 1.878858, -0.283924, 2.567888

1497889720.777881, 0.011606, -0.017410, 0.002138, 0.304000, 0.944000, -0.240000, -8.943443, 48.775928, -0.268248, 1.877916, -0.284306, 2.569529

1497889720.791243, 0.022907, -0.017715, 0.003665, 0.288000, 0.960000, -0.304000, -8.869272, 48.789632, -0.236894, 1.878278, -0.284167, 2.568785

1497889720.804620, 0.027184, -0.020769, 0.005803, 0.288000, 0.960000, -0.304000, -8.809465, 48.800582, -0.211620, 1.878702, -0.284044, 2.567964

1497889720.818046, 0.045509, -0.017410, 0.005803, 0.288000, 0.976000, -0.288000, -8.761316, 48.809333, -0.191276, 1.878951, -0.283883, 2.567756

1497889720.831487, 0.030849, -0.016493, 0.002443, 0.288000, 0.960000, -0.304000, -8.867020, 48.790438, -0.131675, 1.879393, -0.283741, 2.566998

1497889720.844894, 0.003971, -0.018631, -0.000305, 0.288000, 0.960000, -0.304000, -8.951085, 48.775191, -0.084254, 1.879475, -0.283559, 2.566245

1497889720.858723, 0.023824, -0.018631, 0.001527, 0.288000, 0.960000, -0.304000, -8.976644, 48.770442, -0.109898, 1.879831, -0.283402, 2.565520

1497889720.872106, 0.006109, -0.020159, 0.002138, 0.288000, 0.976000, -0.288000, -8.997078, 48.766626, -0.130404, 1.879544, -0.283198, 2.565400

1497889720.885486, 0.025656, -0.021075, 0.002749, 0.288000, 0.976000, -0.288000, -9.013418, 48.763562, -0.146803, 1.879523, -0.283002, 2.565287

1497889720.898883, 0.030238, -0.019242, -0.002138, 0.304000, 0.992000, -0.288000, -8.946891, 48.775611, -0.202893, 1.879465, -0.282969, 2.565554

1497889720.912259, 0.010079, -0.017715, 0.002749, 0.304000, 0.992000, -0.288000, -8.893295, 48.785203, -0.248063, 1.879144, -0.283004, 2.565824

1497889720.925644, 0.007636, -0.015882, 0.002749, 0.288000, 0.976000, -0.288000, -8.927252, 48.779137, -0.219582, 1.878876, -0.282833, 2.565782

1497889720.939030, 0.020159, -0.017410, 0.003360, 0.304000, 0.976000, -0.272000, -8.954325, 48.774272, -0.196873, 1.878487, -0.282996, 2.566480

1497889720.952412, 0.035430, -0.014355, 0.003054, 0.304000, 0.976000, -0.272000, -8.975923, 48.770371, -0.178752, 1.878294, -0.283162, 2.567203

1497889720.965797, 0.032987, -0.018021, 0.001527, 0.304000, 0.976000, -0.272000, -8.954661, 48.774398, -0.142843, 1.878085, -0.283292, 2.567837

1497889720.979179, 0.025656, -0.018937, -0.000000, 0.272000, 0.992000, -0.288000, -8.937742, 48.777577, -0.114275, 1.877995, -0.282699, 2.567466

1497889721.002301, 0.034514, -0.020159, 0.001527, 0.304000, 0.992000, -0.288000, -8.897912, 48.784744, -0.155352, 1.878415, -0.282669, 2.567416

1497889721.015916, 0.039706, -0.017104, 0.002443, 0.304000, 0.992000, -0.288000, -8.865836, 48.790467, -0.188422, 1.878511, -0.282707, 2.567602

1497889721.029393, 0.006109, -0.015272, 0.003054, 0.288000, 0.976000, -0.272000, -8.890232, 48.786219, -0.129774, 1.877931, -0.282579, 2.567977

1497889721.042871, -0.001527, -0.017104, 0.002138, 0.288000, 0.976000, -0.256000, -8.909716, 48.782767, -0.082910, 1.876960, -0.282473, 2.568838

1497889721.056359, 0.001527, -0.017410, 0.001222, 0.288000, 0.976000, -0.256000, -8.925282, 48.779971, -0.045452, 1.876050, -0.282355, 2.569662

1497889721.069847, 0.038485, -0.018631, 0.002138, 0.288000, 0.976000, -0.288000, -8.925853, 48.779853, -0.057565, 1.876263, -0.282177, 2.569397

1497889721.083329, 0.043677, -0.017104, 0.002443, 0.288000, 0.976000, -0.288000, -8.926305, 48.779758, -0.067189, 1.876534, -0.282012, 2.569164

1497889721.096804, 0.008247, -0.020159, -0.000611, 0.272000, 0.976000, -0.272000, -8.915320, 48.781617, -0.138369, 1.876032, -0.281535, 2.569214

1497889721.110254, 0.027489, -0.020464, -0.000305, 0.304000, 0.976000, -0.288000, -8.906475, 48.783037, -0.195586, 1.876105, -0.281628, 2.569284

1497889721.123721, 0.032681, -0.021380, 0.002749, 0.304000, 0.976000, -0.288000, -8.899363, 48.784129, -0.241536, 1.876252, -0.281754, 2.569354

1497889721.137205, 0.024435, -0.019853, 0.003360, 0.304000, 0.992000, -0.240000, -9.011976, 48.763815, -0.151222, 1.875300, -0.281937, 2.571077

1497889721.150651, 0.036652, -0.023213, 0.005498, 0.304000, 0.960000, -0.320000, -9.101972, 48.747268, -0.079002, 1.876215, -0.282118, 2.569998

1497889721.164097, 0.019242, -0.020464, 0.003054, 0.304000, 0.960000, -0.320000, -9.081539, 48.751102, -0.063229, 1.876869, -0.282275, 2.568969

1497889721.177583, 0.025962, -0.018631, 0.004887, 0.288000, 0.976000, -0.272000, -9.065310, 48.754137, -0.050703, 1.876598, -0.282166, 2.569282

1497889721.191051, 0.021075, -0.018021, 0.005803, 0.288000, 0.976000, -0.272000, -9.052402, 48.756544, -0.040741, 1.876266, -0.282072, 2.569581

1497889721.204506, 0.026878, -0.018021, 0.002749, 0.304000, 0.976000, -0.288000, -8.995053, 48.767080, -0.095908, 1.876321, -0.282202, 2.569632

1497889721.218015, 0.028711, -0.018326, 0.003054, 0.288000, 0.992000, -0.272000, -8.948900, 48.775463, -0.140289, 1.876010, -0.281995, 2.570030

1497889721.231533, 0.019548, -0.017715, 0.000916, 0.288000, 0.992000, -0.272000, -8.965176, 48.772545, -0.112938, 1.875579, -0.281768, 2.570424

1497889721.245035, 0.024740, -0.015272, 0.001222, 0.288000, 0.992000, -0.304000, -8.978282, 48.770180, -0.090909, 1.875817, -0.281501, 2.569806

1497889721.258551, 0.026573, -0.017104, 0.002138, 0.304000, 0.976000, -0.272000, -8.988823, 48.768268, -0.073189, 1.875575, -0.281672, 2.570360

1497889721.272171, 0.021075, -0.018326, -0.000000, 0.304000, 0.976000, -0.272000, -9.044976, 48.757925, -0.037492, 1.875269, -0.281807, 2.570893

1497889721.286126, 0.033598, -0.018326, 0.000916, 0.272000, 0.976000, -0.288000, -9.089619, 48.749636, -0.009104, 1.875450, -0.281330, 2.570374

1497889721.299569, 0.033903, -0.022297, 0.001527, 0.288000, 0.960000, -0.272000, -9.090862, 48.749397, -0.028674, 1.875408, -0.281261, 2.570547

1497889721.313050, 0.008247, -0.022297, 0.003054, 0.288000, 0.960000, -0.272000, -9.091855, 48.749200, -0.044340, 1.875032, -0.281212, 2.570720

1497889721.326635, 0.018326, -0.016188, -0.002138, 0.288000, 0.976000, -0.304000, -9.092649, 48.749039, -0.056879, 1.875288, -0.280988, 2.570049

1497889721.340198, 0.043066, -0.017104, 0.001527, 0.288000, 0.976000, -0.304000, -9.017330, 48.762980, -0.088401, 1.875876, -0.280811, 2.569352

1497889721.353639, 0.012828, -0.015577, 0.002443, 0.304000, 0.992000, -0.272000, -8.956580, 48.774122, -0.113817, 1.875359, -0.280926, 2.570021

1497889721.367019, 0.028100, -0.018631, 0.003971, 0.304000, 0.944000, -0.240000, -8.989426, 48.768083, -0.112286, 1.874711, -0.281381, 2.571503

1497889721.380372, 0.023824, -0.018326, 0.002138, 0.304000, 0.944000, -0.240000, -9.015558, 48.763261, -0.111069, 1.874015, -0.281803, 2.572976

1497889721.393713, 0.038485, -0.017104, 0.001833, 0.320000, 0.976000, -0.288000, -9.036373, 48.759410, -0.110099, 1.874263, -0.282221, 2.573240

1497889721.407063, 0.030543, -0.017410, 0.001527, 0.288000, 0.976000, -0.304000, -8.983174, 48.769128, -0.151613, 1.874699, -0.282019, 2.572505

1497889721.420403, 0.014050, -0.016188, -0.000611, 0.288000, 0.976000, -0.304000, -8.940669, 48.776824, -0.184772, 1.874903, -0.281800, 2.571813

1497889721.433769, 0.029322, -0.018631, -0.000000, 0.320000, 0.976000, -0.304000, -8.888481, 48.786153, -0.233358, 1.875312, -0.282158, 2.571619

1497889721.447182, 0.009468, -0.020159, 0.001527, 0.320000, 0.976000, -0.304000, -8.846431, 48.793592, -0.272493, 1.875462, -0.282522, 2.571410

1497889721.460549, 0.016493, -0.017715, 0.000305, 0.304000, 0.960000, -0.304000, -8.812599, 48.799528, -0.303972, 1.875781, -0.282670, 2.570925

1497889721.473895, 0.037263, -0.018021, 0.003665, 0.288000, 0.992000, -0.288000, -8.822683, 48.797819, -0.285335, 1.875888, -0.282431, 2.570825

1497889721.487232, 0.016188, -0.020464, 0.000916, 0.288000, 0.992000, -0.288000, -8.830714, 48.796451, -0.270492, 1.875723, -0.282153, 2.570700

1497889721.500561, 0.044899, -0.018326, 0.002443, 0.304000, 0.976000, -0.304000, -8.872197, 48.789198, -0.215807, 1.876318, -0.282249, 2.570257

1497889721.513881, 0.016493, -0.017715, 0.000611, 0.304000, 0.976000, -0.320000, -8.905131, 48.783370, -0.172375, 1.876822, -0.282301, 2.569339

1497889721.527201, 0.017715, -0.016493, 0.002138, 0.304000, 0.976000, -0.320000, -8.931318, 48.778692, -0.137830, 1.877329, -0.282375, 2.568439

1497889721.540517, 0.029627, -0.017104, -0.000611, 0.320000, 0.976000, -0.304000, -8.955842, 48.774080, -0.173955, 1.877686, -0.282720, 2.568324

1497889721.553838, 0.027794, -0.016493, 0.002138, 0.320000, 0.976000, -0.304000, -8.975547, 48.770346, -0.202988, 1.878015, -0.283095, 2.568233

1497889721.567166, 0.032070, -0.016799, 0.003360, 0.288000, 0.976000, -0.288000, -9.011090, 48.763868, -0.183693, 1.878092, -0.282926, 2.568141

1497889721.580485, 0.014966, -0.020464, 0.000916, 0.320000, 0.976000, -0.272000, -9.039501, 48.758665, -0.168267, 1.877668, -0.283336, 2.569004

1497889721.593804, 0.021380, -0.018021, 0.003360, 0.320000, 0.976000, -0.272000, -9.062216, 48.754489, -0.155933, 1.877330, -0.283777, 2.569873

1497889721.607119, 0.019548, -0.015272, 0.003360, 0.288000, 0.976000, -0.304000, -9.089618, 48.749276, -0.187604, 1.877555, -0.283574, 2.569296

1497889721.620434, 0.018937, -0.016188, -0.000305, 0.288000, 0.992000, -0.288000, -9.111403, 48.745106, -0.212790, 1.877374, -0.283276, 2.569342

1497889721.633747, 0.015272, -0.017104, -0.003054, 0.288000, 0.992000, -0.288000, -9.128746, 48.741769, -0.232843, 1.877149, -0.282947, 2.569408

1497889721.647098, 0.015577, -0.017410, 0.002443, 0.288000, 0.960000, -0.288000, -9.077883, 48.751070, -0.271104, 1.877121, -0.282847, 2.569297

1497889721.660417, 0.020769, -0.018631, 0.005192, 0.288000, 0.960000, -0.288000, -9.036919, 48.758499, -0.301910, 1.877168, -0.282778, 2.569165

1497889721.673736, 0.022907, -0.017410, -0.000611, 0.304000, 0.960000, -0.288000, -9.004040, 48.764804, -0.263447, 1.877233, -0.282939, 2.569288

1497889721.687060, 0.025962, -0.020464, 0.005192, 0.288000, 0.960000, -0.288000, -8.977621, 48.769832, -0.232549, 1.877352, -0.282861, 2.569062

1497889721.700378, 0.029932, -0.020464, 0.004581, 0.288000, 0.960000, -0.288000, -8.956411, 48.773843, -0.207749, 1.877521, -0.282776, 2.568817

1497889721.713700, 0.017410, -0.018021, -0.000000, 0.288000, 0.976000, -0.336000, -8.997335, 48.766596, -0.123826, 1.878318, -0.282508, 2.567192

