Using settings file RTIMULib_peter.ini
IMU Name: L3GD20 + LSM303DLHC
IMU Init Succeeded
Recommended Poll Interval: 10mS

Time, gyroX, gyroY, gyroZ, accelX, accelY, accelZ, magX, magY, magZ, phi, theta, psi

1497933739.108364, 0.011606, -0.077580, 0.010385, 0.096000, -0.032000, 0.960000, -13.424013, -27.568521, 38.973334, -0.033321, -0.099614, 2.154019

1497933739.121952, 0.561080, -0.207694, 0.043677, 0.096000, -0.032000, 0.960000, -0.963593, -14.670755, 47.360202, -0.025912, -0.102348, 2.151256

1497933739.135312, 1.024116, -0.423024, 0.109039, 0.080000, -0.032000, 0.992000, 3.286482, -9.782566, 48.504110, -0.012648, -0.107334, 2.142746

1497933739.148663, 1.035722, -0.428217, 0.108734, 0.080000, -0.032000, 0.992000, 5.317696, -7.319296, 48.757546, 0.000643, -0.112161, 2.128081

1497933739.162011, 1.036638, -0.427606, 0.109650, 0.112000, -0.032000, 0.960000, 6.460519, -5.907848, 48.810934, 0.013416, -0.117506, 2.114889

1497933739.175357, 1.036638, -0.430355, 0.110567, 0.096000, 0.000000, 0.976000, 7.164440, -5.127285, 48.800922, 0.026829, -0.122553, 2.096718

1497933739.188685, 1.037249, -0.429438, 0.110567, 0.096000, 0.000000, 0.976000, 7.607695, -4.602661, 48.786133, 0.040076, -0.127349, 2.076514

1497933739.202025, 1.014647, -0.506102, 0.111788, 0.080000, -0.016000, 0.976000, 7.918083, -4.233734, 48.770152, 0.052969, -0.132344, 2.050507

1497933739.215361, 0.938900, -0.445626, 0.106901, 0.080000, -0.032000, 0.992000, 8.127430, -3.945656, 48.759870, 0.064644, -0.135958, 2.020806

1497933739.228686, 0.765720, -0.384234, 0.094684, 0.080000, -0.032000, 0.992000, 8.282788, -3.731366, 48.750596, 0.073941, -0.138546, 1.990440

1497933739.242019, 0.298408, -0.137445, 0.038790, 0.080000, -0.016000, 0.976000, 8.400050, -3.569336, 48.742664, 0.077118, -0.138117, 1.962195

1497933739.255348, 0.018326, -0.010385, 0.004276, 0.080000, -0.016000, 0.976000, 8.462810, -3.420444, 48.742483, 0.076588, -0.136005, 1.933574

1497933739.268670, 0.025045, -0.016799, 0.004887, 0.096000, -0.032000, 0.944000, 8.511205, -3.305462, 48.741990, 0.075616, -0.134040, 1.903652

1497933739.282005, 0.018021, -0.017715, 0.003665, 0.128000, -0.032000, 0.960000, 8.593310, -3.192775, 48.735095, 0.073966, -0.132911, 1.878558

1497933739.295335, 0.021075, -0.011301, 0.004276, 0.128000, -0.032000, 0.960000, 8.657496, -3.104600, 48.729431, 0.072376, -0.131720, 1.853140

1497933739.308663, 0.019853, -0.013744, 0.004276, 0.096000, -0.032000, 0.976000, 8.707914, -3.035286, 48.724814, 0.071412, -0.129806, 1.823144

1497933739.321995, 0.021075, -0.011301, 0.003360, 0.080000, 0.000000, 0.976000, 8.751775, -2.996654, 48.719347, 0.071035, -0.128236, 1.797934

1497933739.335318, 0.016799, -0.015577, 0.003665, 0.080000, 0.000000, 0.976000, 8.786336, -2.966202, 48.714990, 0.070577, -0.126763, 1.773075

1497933739.348643, 0.016188, -0.014050, 0.002443, 0.080000, -0.016000, 0.976000, 8.817829, -2.972896, 48.708891, 0.069902, -0.125031, 1.746081

1497933739.361981, 0.018326, -0.015272, 0.000611, 0.080000, -0.016000, 0.976000, 8.842917, -2.978227, 48.704017, 0.069226, -0.123368, 1.719586

1497933739.375310, 0.019853, -0.013744, 0.001527, 0.080000, -0.032000, 0.992000, 8.862921, -2.982478, 48.700120, 0.068408, -0.121400, 1.690747

1497933739.388630, 0.023213, -0.015577, 0.003054, 0.080000, -0.032000, 0.992000, 8.875053, -2.940742, 48.700449, 0.067599, -0.119517, 1.662338

1497933739.401960, 0.020159, -0.013439, 0.003971, 0.080000, -0.032000, 0.992000, 8.884726, -2.907447, 48.700684, 0.066717, -0.117667, 1.634380

1497933739.415282, 0.019853, -0.014050, 0.003360, 0.080000, -0.016000, 0.992000, 8.866770, -2.901493, 48.704312, 0.065968, -0.116201, 1.609817

1497933739.428600, 0.017715, -0.017410, 0.002443, 0.096000, -0.016000, 0.992000, 8.852442, -2.896743, 48.707201, 0.064947, -0.115162, 1.587098

1497933739.441930, 0.016799, -0.014050, 0.002749, 0.096000, -0.016000, 0.992000, 8.841003, -2.892950, 48.709504, 0.063909, -0.114127, 1.564851

1497933739.455255, 0.021991, -0.015272, 0.004581, 0.080000, -0.016000, 0.976000, 8.870273, -2.873504, 48.705333, 0.063130, -0.112838, 1.541651

1497933739.468575, 0.018631, -0.015272, 0.001833, 0.080000, -0.016000, 0.976000, 8.893733, -2.857914, 48.701972, 0.062298, -0.111591, 1.518792

1497933739.481935, 0.022907, -0.015272, 0.000916, 0.080000, -0.016000, 0.960000, 8.895562, -2.818170, 48.703954, 0.061495, -0.110408, 1.496290

1497933739.495304, 0.018326, -0.014661, 0.002443, 0.080000, -0.032000, 0.992000, 8.897019, -2.786441, 48.705514, 0.060468, -0.108924, 1.471178

1497933739.508648, 0.020159, -0.011912, 0.001527, 0.080000, -0.032000, 0.992000, 8.898180, -2.761100, 48.706745, 0.059451, -0.107456, 1.446463

1497933739.521999, 0.017104, -0.013439, 0.002443, 0.080000, -0.032000, 0.976000, 8.932410, -2.809833, 48.697691, 0.058349, -0.106089, 1.422373

1497933739.535351, 0.025045, -0.016799, 0.003971, 0.064000, -0.016000, 0.960000, 8.959819, -2.848864, 48.690388, 0.057733, -0.104799, 1.400814

1497933739.548690, 0.022602, -0.014355, 0.002443, 0.064000, -0.016000, 0.960000, 8.935451, -2.857434, 48.694364, 0.057068, -0.103521, 1.379724

1497933739.562054, 0.013439, -0.013134, 0.004581, 0.080000, -0.048000, 0.960000, 8.915950, -2.864292, 48.697535, 0.055647, -0.101986, 1.353939

1497933739.575392, 0.021075, -0.014355, 0.000916, 0.080000, -0.048000, 0.960000, 8.900345, -2.869779, 48.700067, 0.054319, -0.100533, 1.328650

1497933739.588731, 0.022907, -0.016493, 0.000916, 0.080000, -0.016000, 0.944000, 8.904687, -2.872556, 48.699109, 0.053436, -0.099806, 1.310198

1497933739.602079, 0.022297, -0.016188, 0.003054, 0.080000, 0.000000, 0.976000, 8.908157, -2.874776, 48.698344, 0.052847, -0.099267, 1.294629

1497933739.615419, 0.022297, -0.015272, 0.001222, 0.080000, 0.000000, 0.976000, 8.919973, -2.835815, 48.698465, 0.052264, -0.098734, 1.279208

1497933739.628782, 0.016493, -0.013134, 0.004581, 0.080000, -0.016000, 0.976000, 8.929435, -2.804604, 48.698538, 0.051338, -0.097991, 1.261416

1497933739.642162, 0.017410, -0.014355, 0.003971, 0.064000, -0.016000, 0.960000, 8.937009, -2.779610, 48.698582, 0.050583, -0.096977, 1.242897

1497933739.655520, 0.019548, -0.014355, 0.001833, 0.064000, -0.016000, 0.960000, 8.908585, -2.799343, 48.702660, 0.049851, -0.095999, 1.224815

1497933739.668857, 0.015577, -0.016188, 0.004276, 0.080000, -0.016000, 0.960000, 8.885887, -2.815098, 48.705898, 0.048899, -0.095429, 1.208257

1497933739.682215, 0.016799, -0.013134, 0.000611, 0.080000, -0.016000, 0.960000, 8.871121, -2.915965, 48.702655, 0.047970, -0.094857, 1.192363

1497933739.695635, 0.017104, -0.014661, 0.000916, 0.080000, -0.016000, 0.960000, 8.859288, -2.996606, 48.699914, 0.047050, -0.094342, 1.177088

1497933739.709006, 0.018631, -0.014661, 0.003665, 0.080000, -0.016000, 0.976000, 8.849808, -3.061085, 48.697628, 0.046169, -0.093835, 1.162332

1497933739.722375, 0.020159, -0.014355, 0.002443, 0.080000, -0.016000, 0.976000, 8.822554, -2.982628, 48.707440, 0.045322, -0.093342, 1.147630

1497933739.735713, 0.019853, -0.014050, 0.001833, 0.080000, -0.016000, 0.992000, 8.800730, -2.919847, 48.715192, 0.044497, -0.092838, 1.132976

1497933739.749020, 0.020159, -0.016799, 0.001833, 0.096000, 0.016000, 0.992000, 8.819836, -2.998015, 48.706988, 0.044185, -0.093021, 1.125252

1497933739.762354, 0.023213, -0.014966, 0.003360, 0.096000, 0.016000, 0.992000, 8.835084, -3.060460, 48.700340, 0.043918, -0.093183, 1.117829

1497933739.775681, 0.022602, -0.017715, 0.004887, 0.080000, -0.016000, 0.976000, 8.847259, -3.110358, 48.694968, 0.043121, -0.092799, 1.104443

1497933739.789000, 0.022602, -0.013439, 0.004276, 0.080000, -0.016000, 0.976000, 8.845642, -3.045081, 48.699388, 0.042337, -0.092373, 1.091102

1497933739.802325, 0.018021, -0.015577, 0.004276, 0.096000, -0.048000, 0.944000, 8.844337, -2.992781, 48.702867, 0.040760, -0.091868, 1.071978

1497933739.815657, 0.019853, -0.017715, 0.001833, 0.080000, -0.016000, 0.992000, 8.843051, -2.972611, 48.704335, 0.039992, -0.091516, 1.058953

1497933739.828976, 0.017410, -0.015272, 0.003054, 0.080000, -0.016000, 0.992000, 8.842021, -2.956460, 48.705506, 0.039201, -0.091149, 1.046153

1497933739.842301, 0.021686, -0.018021, 0.001222, 0.080000, -0.016000, 0.992000, 8.841196, -2.943531, 48.706439, 0.038479, -0.090835, 1.033540

1497933739.855665, 0.023824, -0.016493, 0.003054, 0.064000, -0.032000, 0.960000, 8.814936, -2.953730, 48.710580, 0.037616, -0.090028, 1.017602

1497933739.869009, 0.020769, -0.016493, 0.003054, 0.064000, -0.032000, 0.960000, 8.793933, -2.961886, 48.713881, 0.036716, -0.089254, 1.002028

1497933739.882340, 0.019242, -0.011606, 0.000916, 0.080000, -0.016000, 0.992000, 8.777134, -2.968409, 48.716514, 0.035988, -0.088935, 0.990482

1497933739.895666, 0.021380, -0.017715, 0.004581, 0.080000, -0.016000, 0.992000, 8.760387, -2.885332, 48.724519, 0.035297, -0.088707, 0.978950

1497933739.908983, 0.023518, -0.017104, 0.003054, 0.080000, -0.016000, 0.976000, 8.746983, -2.818920, 48.730814, 0.034635, -0.088504, 0.967469

1497933739.922309, 0.018326, -0.018631, -0.000916, 0.080000, -0.016000, 0.960000, 8.786455, -2.811510, 48.724141, 0.033907, -0.088357, 0.956132

1497933739.935632, 0.021380, -0.013134, 0.004276, 0.080000, -0.016000, 0.960000, 8.818054, -2.805576, 48.718774, 0.033224, -0.088151, 0.945023

1497933739.948953, 0.020769, -0.014355, 0.004887, 0.080000, -0.016000, 0.992000, 8.843347, -2.800825, 48.714462, 0.032570, -0.087922, 0.933988

1497933739.962280, 0.018021, -0.015882, 0.002749, 0.080000, -0.032000, 0.992000, 8.896105, -2.902469, 48.698904, 0.031603, -0.087559, 0.920592

1497933739.975607, 0.018326, -0.013134, 0.000916, 0.080000, -0.032000, 0.992000, 8.938198, -2.983625, 48.686290, 0.030652, -0.087189, 0.907702

1497933739.988923, 0.014966, -0.011301, 0.003360, 0.048000, -0.032000, 0.944000, 8.913907, -2.963870, 48.691950, 0.029857, -0.086191, 0.893620

1497933740.002248, 0.018326, -0.012523, 0.003665, 0.048000, -0.032000, 0.944000, 8.894464, -2.948061, 48.696465, 0.029107, -0.085240, 0.879787

1497933740.015569, 0.022907, -0.014661, 0.004276, 0.064000, -0.016000, 0.992000, 8.878905, -2.935410, 48.700069, 0.028623, -0.084794, 0.869428

1497933740.028891, 0.017410, -0.014966, 0.001222, 0.080000, -0.016000, 0.992000, 8.904543, -2.901729, 48.697406, 0.027991, -0.084700, 0.860118

1497933740.042221, 0.014966, -0.011606, -0.000611, 0.080000, -0.016000, 0.992000, 8.925029, -2.874809, 48.695252, 0.027340, -0.084567, 0.850849

1497933740.055545, 0.015272, -0.013134, 0.001527, 0.080000, -0.016000, 0.976000, 8.890408, -2.923217, 48.698703, 0.026689, -0.084495, 0.842061

1497933740.068881, 0.022297, -0.018021, 0.002443, 0.080000, -0.016000, 1.008000, 8.862639, -2.962029, 48.701420, 0.026162, -0.084448, 0.833529

1497933740.082215, 0.021075, -0.015577, 0.002749, 0.080000, -0.016000, 1.008000, 8.840377, -2.993133, 48.703564, 0.025628, -0.084378, 0.825311

1497933740.095544, 0.019548, -0.016799, 0.003971, 0.096000, -0.016000, 0.976000, 8.794067, -2.906663, 48.717183, 0.025002, -0.084730, 0.818591

1497933740.108865, 0.020464, -0.013439, 0.004276, 0.096000, -0.016000, 0.976000, 8.757001, -2.837492, 48.727937, 0.024401, -0.085031, 0.811815

1497933740.122196, 0.018021, -0.012523, 0.002749, 0.096000, 0.000000, 0.992000, 8.773609, -2.804826, 48.726841, 0.024125, -0.085375, 0.807749

1497933740.135608, 0.021991, -0.017410, 0.003054, 0.080000, -0.032000, 0.976000, 8.786898, -2.778681, 48.725944, 0.023323, -0.085218, 0.796478

1497933740.149000, 0.021075, -0.013744, 0.000305, 0.080000, -0.032000, 0.976000, 8.797530, -2.757757, 48.725214, 0.022525, -0.085022, 0.785304

1497933740.162351, 0.023518, -0.016799, 0.004276, 0.096000, 0.000000, 0.960000, 8.775996, -2.782079, 48.727715, 0.022356, -0.085499, 0.782080

1497933740.175684, 0.019548, -0.015272, 0.002749, 0.096000, -0.064000, 0.992000, 8.758791, -2.801507, 48.729697, 0.020886, -0.085165, 0.764778

1497933740.189015, 0.016799, -0.014966, 0.000916, 0.064000, -0.016000, 0.992000, 8.753471, -2.819747, 48.729601, 0.020460, -0.084800, 0.756462

1497933740.202350, 0.021075, -0.016493, 0.004581, 0.080000, -0.016000, 0.992000, 8.749211, -2.834349, 48.729519, 0.020022, -0.084803, 0.749453

1497933740.215679, 0.021686, -0.016493, 0.003360, 0.080000, -0.016000, 0.992000, 8.745799, -2.846038, 48.729450, 0.019601, -0.084811, 0.742615

1497933740.229000, 0.022297, -0.016188, 0.004276, 0.080000, -0.016000, 0.976000, 8.759984, -2.853796, 48.726449, 0.019185, -0.084845, 0.735984

1497933740.242336, 0.020464, -0.014050, 0.003665, 0.080000, -0.032000, 0.976000, 8.771324, -2.859998, 48.724045, 0.018443, -0.084725, 0.726494

1497933740.255663, 0.019853, -0.017410, 0.004276, 0.080000, -0.032000, 0.976000, 8.721670, -2.823506, 48.735085, 0.017706, -0.084658, 0.717108

1497933740.268983, 0.021380, -0.017715, 0.001527, 0.080000, -0.016000, 0.992000, 8.681897, -2.794280, 48.743871, 0.017326, -0.084701, 0.710807

1497933740.282353, 0.021075, -0.014050, 0.000611, 0.080000, -0.016000, 0.992000, 8.650046, -2.770878, 48.750869, 0.016951, -0.084698, 0.704585

1497933740.295756, 0.017715, -0.012217, 0.005498, 0.064000, -0.016000, 1.008000, 8.683864, -2.750182, 48.746028, 0.016605, -0.084321, 0.697376

1497933740.309102, 0.015577, -0.015272, 0.005803, 0.080000, -0.016000, 0.992000, 8.710894, -2.733636, 48.742136, 0.016165, -0.084346, 0.691265

1497933740.322448, 0.015882, -0.015272, 0.004581, 0.080000, -0.016000, 0.992000, 8.727653, -2.784310, 48.736269, 0.015738, -0.084375, 0.685416

1497933740.335780, 0.020769, -0.014661, 0.003054, 0.080000, -0.032000, 0.976000, 8.741033, -2.824787, 48.731542, 0.015062, -0.084310, 0.676822

1497933740.349104, 0.018326, -0.014661, 0.003054, 0.080000, -0.016000, 0.960000, 8.751719, -2.857128, 48.727739, 0.014671, -0.084396, 0.671574

1497933740.362436, 0.018326, -0.012217, 0.002749, 0.080000, -0.016000, 0.960000, 8.790016, -2.863812, 48.720452, 0.014288, -0.084451, 0.666391

1497933740.375767, 0.022907, -0.013134, 0.003360, 0.096000, -0.016000, 0.976000, 8.820676, -2.869161, 48.714596, 0.013947, -0.084836, 0.662642

1497933740.389090, 0.021075, -0.016188, 0.000305, 0.096000, -0.016000, 0.976000, 8.864933, -3.003563, 48.698458, 0.013596, -0.085262, 0.659355

1497933740.402420, 0.024129, -0.017104, 0.003665, 0.080000, 0.000000, 0.976000, 8.900291, -3.111081, 48.685257, 0.013639, -0.085404, 0.657540

1497933740.415744, 0.020159, -0.018326, 0.001527, 0.064000, -0.016000, 0.976000, 8.928545, -3.197092, 48.674510, 0.013355, -0.085170, 0.652347

1497933740.429060, 0.024740, -0.014966, 0.003054, 0.064000, -0.016000, 0.976000, 8.880568, -3.155048, 48.686029, 0.013133, -0.084898, 0.647213

1497933740.442390, 0.021991, -0.016799, 0.002749, 0.096000, -0.016000, 0.992000, 8.842214, -3.121443, 48.695175, 0.012818, -0.085311, 0.644642

1497933740.455718, 0.015577, -0.014661, 0.003665, 0.080000, -0.016000, 0.976000, 8.811548, -3.094577, 48.702448, 0.012443, -0.085376, 0.640718

1497933740.469038, 0.020159, -0.014966, 0.000305, 0.080000, -0.016000, 0.976000, 8.822953, -3.244430, 48.690630, 0.012137, -0.085451, 0.637310

1497933740.482371, 0.017715, -0.014661, 0.000611, 0.080000, 0.000000, 0.992000, 8.831999, -3.364043, 48.680872, 0.012127, -0.085539, 0.636621

1497933740.495695, 0.017410, -0.015882, 0.001527, 0.080000, 0.000000, 0.992000, 8.812435, -3.248594, 48.692257, 0.012113, -0.085639, 0.635673

1497933740.509039, 0.018937, -0.016188, 0.002443, 0.080000, -0.032000, 0.960000, 8.796716, -3.156030, 48.701186, 0.011465, -0.085657, 0.629269

1497933740.522428, 0.020464, -0.012828, 0.002138, 0.096000, -0.016000, 0.992000, 8.784097, -3.081849, 48.708214, 0.011168, -0.086011, 0.627027

1497933740.535795, 0.021380, -0.010996, 0.000611, 0.096000, -0.016000, 0.992000, 8.848159, -3.170370, 48.690934, 0.010892, -0.086336, 0.624999

1497933740.549147, 0.018631, -0.012217, 0.002138, 0.080000, -0.016000, 0.976000, 8.899296, -3.241064, 48.676959, 0.010597, -0.086362, 0.621792

1497933740.562502, 0.022907, -0.014050, 0.003360, 0.096000, -0.016000, 0.992000, 8.899094, -3.211452, 48.678958, 0.010350, -0.086723, 0.619945

1497933740.575855, 0.021991, -0.014355, 0.002749, 0.096000, -0.016000, 0.992000, 8.898931, -3.187775, 48.680544, 0.010097, -0.087081, 0.618043

1497933740.589198, 0.023213, -0.012828, 0.002749, 0.064000, -0.016000, 0.992000, 8.898799, -3.168840, 48.681804, 0.009925, -0.086739, 0.613585

1497933740.602562, 0.027184, -0.016188, 0.004276, 0.064000, -0.016000, 0.992000, 8.819271, -3.112871, 48.699885, 0.009806, -0.086449, 0.609167

1497933740.615945, 0.023518, -0.016493, -0.000305, 0.096000, -0.032000, 0.976000, 8.755542, -3.068030, 48.714227, 0.009240, -0.086790, 0.604117

1497933740.629315, 0.019548, -0.013439, 0.000305, 0.048000, -0.016000, 0.976000, 8.801294, -3.057272, 48.706658, 0.009084, -0.086150, 0.598828

1497933740.642723, 0.022602, -0.014966, 0.001833, 0.048000, -0.016000, 0.976000, 8.837992, -3.048640, 48.700554, 0.008968, -0.085544, 0.593604

1497933740.656084, 0.020159, -0.018021, -0.000611, 0.080000, -0.032000, 0.976000, 8.867412, -3.041717, 48.695639, 0.008416, -0.085580, 0.587505

1497933740.669430, 0.020464, -0.016188, 0.002138, 0.096000, -0.016000, 0.976000, 8.839893, -3.055481, 48.699780, 0.008176, -0.086022, 0.585996

1497933740.682778, 0.021686, -0.015577, 0.003360, 0.096000, -0.016000, 0.976000, 8.817876, -3.066490, 48.703080, 0.007957, -0.086449, 0.584622

1497933740.696127, 0.018326, -0.015272, 0.003360, 0.080000, -0.016000, 0.976000, 8.838288, -3.073333, 48.698948, 0.007714, -0.086521, 0.581780

1497933740.709485, 0.015577, -0.012217, 0.001527, 0.080000, -0.016000, 0.976000, 8.854597, -3.078800, 48.695640, 0.007441, -0.086553, 0.578963

1497933740.722870, 0.019242, -0.015882, 0.001222, 0.112000, -0.032000, 0.928000, 8.867630, -3.083169, 48.692992, 0.006812, -0.087374, 0.576234

1497933740.736247, 0.013744, -0.014355, 0.000916, 0.080000, -0.016000, 0.960000, 8.836565, -3.021973, 48.702475, 0.006529, -0.087445, 0.573416

1497933740.749582, 0.018326, -0.014050, 0.001222, 0.080000, -0.016000, 0.960000, 8.811704, -2.973022, 48.709992, 0.006310, -0.087509, 0.570529

1497933740.762948, 0.021991, -0.016188, 0.003054, 0.064000, -0.032000, 0.976000, 8.791810, -2.933864, 48.715960, 0.005893, -0.087155, 0.563857

1497933740.776281, 0.018631, -0.013134, 0.003665, 0.080000, -0.032000, 0.992000, 8.775893, -2.902540, 48.720706, 0.005394, -0.087082, 0.558006

1497933740.789602, 0.021991, -0.013744, 0.003665, 0.080000, -0.032000, 0.992000, 8.763157, -2.877482, 48.724485, 0.004949, -0.087021, 0.552187

1497933740.802937, 0.017715, -0.009163, 0.002443, 0.080000, -0.032000, 0.976000, 8.744318, -2.876393, 48.727934, 0.004443, -0.086929, 0.546453

1497933740.816269, 0.020464, -0.014661, 0.000305, 0.080000, -0.032000, 0.976000, 8.729275, -2.875523, 48.730682, 0.003985, -0.086915, 0.540818

1497933740.829591, 0.017715, -0.013744, 0.004887, 0.128000, -0.016000, 0.992000, 8.772691, -2.813419, 48.726511, 0.003871, -0.087950, 0.543833

1497933740.842927, 0.025351, -0.015882, 0.005498, 0.080000, -0.032000, 0.976000, 8.807453, -2.763666, 48.723087, 0.003487, -0.087924, 0.537798

1497933740.856251, 0.020769, -0.016188, 0.001527, 0.080000, -0.032000, 0.976000, 8.835282, -2.723821, 48.720292, 0.003056, -0.087903, 0.531649

1497933740.869566, 0.019548, -0.016188, 0.001222, 0.080000, 0.064000, 0.976000, 8.822986, -2.781994, 48.719233, 0.004523, -0.087773, 0.538798

1497933740.882899, 0.019242, -0.015272, 0.006720, 0.064000, -0.016000, 0.992000, 8.813116, -2.828646, 48.718333, 0.004400, -0.087468, 0.535041

1497933740.896220, 0.021686, -0.015882, 0.005498, 0.064000, -0.016000, 0.992000, 8.796471, -2.885052, 48.718034, 0.004308, -0.087179, 0.531539

1497933740.909543, 0.024435, -0.016799, 0.004581, 0.080000, -0.032000, 1.008000, 8.783149, -2.930165, 48.717745, 0.003925, -0.087148, 0.526473

1497933740.922876, 0.023213, -0.016799, 0.002443, 0.080000, -0.032000, 1.008000, 8.772486, -2.966248, 48.717483, 0.003535, -0.087123, 0.521627

1497933740.936201, 0.022297, -0.012523, 0.003665, 0.080000, -0.016000, 0.992000, 8.831900, -2.974079, 48.706269, 0.003436, -0.087134, 0.519665

1497933740.949517, 0.022907, -0.014355, 0.001833, 0.064000, 0.000000, 0.960000, 8.879439, -2.980344, 48.697242, 0.003670, -0.086909, 0.519047

1497933740.962843, 0.015272, -0.019548, -0.001527, 0.064000, 0.000000, 0.960000, 8.820305, -2.960218, 48.709215, 0.003804, -0.086757, 0.518429

1497933740.976173, 0.022907, -0.013439, 0.003665, 0.080000, -0.016000, 0.992000, 8.773070, -2.944143, 48.718718, 0.003707, -0.086787, 0.516520

1497933740.989498, 0.018021, -0.017410, 0.001833, 0.096000, -0.016000, 0.960000, 8.735328, -2.931298, 48.726274, 0.003532, -0.087270, 0.516294

1497933741.002830, 0.017715, -0.018021, 0.000611, 0.096000, -0.016000, 0.960000, 8.866105, -2.880182, 48.705698, 0.003355, -0.087745, 0.515574

1497933741.016140, 0.024435, -0.019242, 0.003665, 0.080000, -0.016000, 0.976000, 8.970761, -2.839239, 48.688935, 0.003282, -0.087853, 0.513117

1497933741.029457, 0.024129, -0.015882, 0.003054, 0.080000, -0.016000, 0.976000, 8.940124, -2.826615, 48.695305, 0.003208, -0.087915, 0.510700

1497933741.042801, 0.018021, -0.016799, 0.003360, 0.096000, -0.016000, 0.992000, 8.915625, -2.816521, 48.700381, 0.003049, -0.088294, 0.509573

1497933741.056124, 0.014966, -0.016188, 0.002138, 0.080000, -0.032000, 0.976000, 8.896033, -2.808448, 48.704430, 0.002547, -0.088282, 0.504271

1497933741.069482, 0.020464, -0.014355, 0.004581, 0.080000, -0.032000, 0.976000, 8.854777, -2.822588, 48.711130, 0.002124, -0.088250, 0.499201

1497933741.082817, 0.017104, -0.012828, 0.001222, 0.080000, -0.016000, 0.976000, 8.821803, -2.833886, 48.716457, 0.001982, -0.088271, 0.497238

1497933741.096145, 0.020769, -0.015882, 0.001222, 0.080000, -0.032000, 0.976000, 8.795442, -2.842916, 48.720697, 0.001576, -0.088265, 0.492403

1497933741.109464, 0.021075, -0.016799, 0.003971, 0.080000, -0.032000, 0.976000, 8.841386, -2.894241, 48.709358, 0.001177, -0.088277, 0.487854

1497933741.122798, 0.019853, -0.017410, 0.003360, 0.080000, -0.032000, 0.976000, 8.878121, -2.935289, 48.700219, 0.000771, -0.088301, 0.483507

1497933741.136121, 0.018937, -0.014966, 0.001527, 0.080000, -0.032000, 0.976000, 8.823448, -2.947352, 48.709426, 0.000361, -0.088296, 0.479328

1497933741.149589, 0.020464, -0.015272, 0.001833, 0.048000, -0.080000, 0.992000, 8.779679, -2.957004, 48.716749, -0.000690, -0.087222, 0.466784

1497933741.162977, 0.018937, -0.014661, 0.003360, 0.080000, -0.032000, 0.960000, 8.744645, -2.964727, 48.722580, -0.001088, -0.087272, 0.463088

1497933741.176315, 0.021075, -0.017104, 0.005803, 0.080000, -0.032000, 0.960000, 8.797453, -2.903466, 48.716763, -0.001454, -0.087349, 0.459198

1497933741.189646, 0.019548, -0.012217, 0.002749, 0.080000, -0.016000, 0.992000, 8.839639, -2.854503, 48.712020, -0.001491, -0.087362, 0.458051

1497933741.202982, 0.020464, -0.014355, 0.001222, 0.080000, -0.016000, 0.992000, 8.822897, -2.820090, 48.717059, -0.001513, -0.087402, 0.456811

1497933741.216308, 0.014661, -0.016799, 0.001833, 0.080000, -0.016000, 0.992000, 8.809468, -2.792493, 48.721079, -0.001611, -0.087474, 0.455528

1497933741.229634, 0.018021, -0.014050, 0.002443, 0.096000, -0.016000, 0.976000, 8.798702, -2.770373, 48.724287, -0.001674, -0.087869, 0.455638

1497933741.242969, 0.020159, -0.013134, 0.003054, 0.096000, -0.016000, 0.976000, 8.798053, -2.791946, 48.723173, -0.001707, -0.088245, 0.455843

1497933741.256296, 0.020159, -0.011912, 0.000916, 0.080000, 0.000000, 0.976000, 8.797532, -2.809177, 48.722276, -0.001416, -0.088270, 0.457351

1497933741.269614, 0.019548, -0.014355, 0.000305, 0.096000, -0.016000, 0.992000, 8.771579, -2.843509, 48.724964, -0.001454, -0.088623, 0.457638

1497933741.282950, 0.019548, -0.014966, 0.003665, 0.096000, -0.016000, 0.992000, 8.750849, -2.870924, 48.727084, -0.001495, -0.088979, 0.458114

1497933741.296279, 0.019242, -0.014661, 0.001222, 0.064000, -0.032000, 0.976000, 8.734286, -2.892822, 48.728760, -0.001815, -0.088631, 0.453575

1497933741.309599, 0.018937, -0.013744, 0.002443, 0.064000, -0.016000, 0.992000, 8.776458, -2.849003, 48.723765, -0.001833, -0.088312, 0.451574

1497933741.322932, 0.021380, -0.017104, 0.003971, 0.064000, -0.016000, 0.992000, 8.810237, -2.813891, 48.719709, -0.001819, -0.088043, 0.449484

1497933741.336257, 0.022297, -0.015577, 0.000611, 0.064000, -0.016000, 0.992000, 8.777785, -2.831228, 48.724562, -0.001791, -0.087760, 0.447484

1497933741.349576, 0.017410, -0.012828, 0.001527, 0.064000, -0.016000, 0.992000, 8.751764, -2.845127, 48.728433, -0.001830, -0.087447, 0.445609

1497933741.362906, 0.018326, -0.012217, 0.001527, 0.064000, -0.016000, 0.960000, 8.730909, -2.856265, 48.731522, -0.001871, -0.087176, 0.443873

1497933741.376267, 0.021380, -0.017104, 0.006414, 0.112000, -0.032000, 0.960000, 8.756312, -2.886521, 48.725181, -0.002241, -0.087962, 0.442926

1497933741.389605, 0.018937, -0.015272, 0.003054, 0.112000, -0.032000, 0.960000, 8.776646, -2.910744, 48.720081, -0.002630, -0.088710, 0.442042

1497933741.402944, 0.021075, -0.013439, 0.004887, 0.080000, -0.016000, 0.960000, 8.793082, -2.901109, 48.717692, -0.002640, -0.088770, 0.441609

1497933741.416269, 0.018937, -0.013134, 0.004276, 0.112000, -0.016000, 0.944000, 8.806177, -2.893431, 48.715784, -0.002637, -0.089549, 0.444889

1497933741.429594, 0.016493, -0.013744, 0.002443, 0.112000, -0.016000, 0.944000, 8.816620, -2.887308, 48.714258, -0.002666, -0.090320, 0.448019

1497933741.442927, 0.022297, -0.015272, 0.004581, 0.064000, -0.032000, 0.992000, 8.871018, -2.905006, 48.703329, -0.002914, -0.089939, 0.443707

1497933741.456257, 0.022602, -0.014050, 0.003665, 0.064000, -0.032000, 0.992000, 8.914465, -2.919141, 48.694550, -0.003154, -0.089552, 0.439483

1497933741.469599, 0.019242, -0.011606, 0.002443, 0.064000, -0.032000, 0.960000, 8.852675, -2.934398, 48.704904, -0.003460, -0.089182, 0.435333

1497933741.482971, 0.022907, -0.011912, 0.004276, 0.096000, -0.016000, 1.008000, 8.803159, -2.946619, 48.713141, -0.003410, -0.089459, 0.436346

1497933741.496332, 0.019548, -0.017410, 0.006720, 0.096000, -0.016000, 1.008000, 8.763492, -2.956404, 48.719700, -0.003408, -0.089803, 0.437488

1497933741.509676, 0.023213, -0.011301, 0.003360, 0.080000, -0.048000, 1.008000, 8.824955, -2.922765, 48.710634, -0.003952, -0.089601, 0.431212

1497933741.523030, 0.021075, -0.014966, 0.003360, 0.080000, -0.032000, 0.960000, 8.874211, -2.895795, 48.703296, -0.004255, -0.089617, 0.427818

1497933741.536366, 0.018326, -0.016493, 0.001222, 0.080000, -0.032000, 0.960000, 8.858196, -2.913909, 48.705131, -0.004586, -0.089656, 0.424551

1497933741.549712, 0.020464, -0.018326, 0.002443, 0.064000, -0.016000, 0.976000, 8.845396, -2.928383, 48.706589, -0.004543, -0.089404, 0.423319

1497933741.563088, 0.020159, -0.013744, 0.002749, 0.064000, -0.016000, 0.976000, 8.835164, -2.939952, 48.707749, -0.004505, -0.089099, 0.422163

1497933741.576429, 0.016799, -0.012828, 0.003054, 0.064000, -0.032000, 0.960000, 8.851833, -2.993767, 48.701444, -0.004824, -0.088764, 0.418570

1497933741.589769, 0.018021, -0.010385, 0.003054, 0.080000, -0.032000, 0.976000, 8.865161, -3.036819, 48.696354, -0.005141, -0.088724, 0.416007

1497933741.603113, 0.024435, -0.014355, 0.004581, 0.080000, -0.032000, 0.976000, 8.813081, -3.028598, 48.706319, -0.005370, -0.088737, 0.413542

1497933741.616452, 0.020159, -0.013744, 0.002443, 0.064000, -0.032000, 0.944000, 8.771387, -3.022015, 48.714253, -0.005644, -0.088449, 0.410230

1497933741.629814, 0.020769, -0.014355, 0.006414, 0.128000, -0.032000, 0.960000, 8.738013, -3.016745, 48.720577, -0.005866, -0.089556, 0.413309

1497933741.643184, 0.021380, -0.014661, 0.003054, 0.080000, -0.032000, 0.960000, 8.770614, -2.988686, 48.716449, -0.006130, -0.089584, 0.410745

1497933741.656536, 0.021075, -0.014966, 0.001833, 0.080000, -0.016000, 0.976000, 8.796665, -2.966258, 48.713122, -0.006062, -0.089625, 0.411062

1497933741.669881, 0.018631, -0.013744, 0.002138, 0.080000, -0.016000, 0.976000, 8.850862, -2.966692, 48.703278, -0.006029, -0.089649, 0.411294

1497933741.683240, 0.020769, -0.012523, 0.003360, 0.080000, -0.016000, 0.960000, 8.894096, -2.967035, 48.695380, -0.005974, -0.089683, 0.411529

1497933741.696579, 0.019548, -0.015272, 0.003360, 0.096000, -0.016000, 0.976000, 8.928605, -2.967308, 48.689048, -0.005925, -0.090057, 0.413041

1497933741.709918, 0.023518, -0.018631, 0.003665, 0.096000, -0.016000, 0.976000, 8.909625, -3.038821, 48.688114, -0.005824, -0.090469, 0.414836

1497933741.723278, 0.020769, -0.019242, 0.006109, 0.080000, 0.000000, 0.992000, 8.894391, -3.096162, 48.687286, -0.005458, -0.090513, 0.417797

1497933741.736601, 0.015272, -0.012217, 0.001527, 0.080000, 0.000000, 0.944000, 8.882172, -3.142119, 48.686573, -0.005162, -0.090545, 0.421172

1497933741.749925, 0.021380, -0.011912, 0.002443, 0.080000, -0.032000, 0.944000, 8.935548, -3.178186, 48.674463, -0.005453, -0.090547, 0.418957

1497933741.763270, 0.017104, -0.012828, 0.001222, 0.080000, -0.016000, 0.992000, 8.978271, -3.207059, 48.664707, -0.005447, -0.090516, 0.419564

1497933741.776610, 0.019548, -0.012217, 0.003665, 0.080000, -0.016000, 0.992000, 8.996750, -3.145176, 48.665333, -0.005411, -0.090477, 0.419962

1497933741.790048, 0.022602, -0.017715, 0.000611, 0.096000, -0.032000, 0.976000, 9.011548, -3.095581, 48.665775, -0.005667, -0.090839, 0.418428

1497933741.803465, 0.018631, -0.012828, 0.002138, 0.080000, -0.032000, 0.976000, 9.023395, -3.055848, 48.666091, -0.005954, -0.090790, 0.415756

1497933741.816848, 0.020769, -0.014355, 0.002443, 0.080000, -0.032000, 0.976000, 8.944123, -3.023533, 48.682740, -0.006208, -0.090762, 0.413105

1497933741.830267, 0.022602, -0.017715, 0.000305, 0.096000, -0.048000, 0.992000, 8.880648, -2.997660, 48.695959, -0.006763, -0.090999, 0.407914

1497933741.843667, 0.020464, -0.014050, -0.000305, 0.096000, -0.016000, 0.992000, 8.854530, -3.043450, 48.697875, -0.006677, -0.091301, 0.409780

1497933741.857038, 0.023824, -0.014661, 0.002443, 0.096000, -0.016000, 0.992000, 8.833607, -3.080114, 48.699369, -0.006551, -0.091606, 0.411825

1497933741.870394, 0.020769, -0.017104, 0.002749, 0.080000, -0.016000, 0.976000, 8.816853, -3.109466, 48.700540, -0.006484, -0.091636, 0.412591

1497933741.883756, 0.020464, -0.018326, 0.004276, 0.080000, -0.016000, 0.976000, 8.783659, -2.995004, 48.713710, -0.006421, -0.091680, 0.413025

1497933741.897137, 0.022297, -0.014050, 0.002443, 0.080000, -0.032000, 0.960000, 8.757162, -2.903748, 48.724005, -0.006656, -0.091654, 0.410137

1497933741.910531, 0.021380, -0.013439, 0.005192, 0.080000, -0.016000, 0.976000, 8.798389, -2.924252, 48.715350, -0.006577, -0.091634, 0.410363

1497933741.923912, 0.022297, -0.014355, 0.003971, 0.080000, -0.016000, 0.976000, 8.831417, -2.940678, 48.708385, -0.006487, -0.091625, 0.410573

1497933741.937298, 0.020769, -0.013439, 0.004276, 0.096000, -0.016000, 0.976000, 8.857869, -2.953835, 48.702785, -0.006413, -0.091937, 0.412210

1497933741.950651, 0.019242, -0.010690, 0.003665, 0.096000, -0.016000, 0.944000, 8.819883, -2.966500, 48.708909, -0.006367, -0.092275, 0.414177

1497933741.964003, 0.015882, -0.013744, 0.004581, 0.096000, -0.016000, 0.944000, 8.789425, -2.976652, 48.713795, -0.006367, -0.092646, 0.416226

1497933741.977339, 0.021075, -0.018937, 0.003665, 0.064000, -0.016000, 0.960000, 8.765479, -2.933829, 48.720707, -0.006290, -0.092366, 0.415312

1497933741.990675, 0.019853, -0.018937, 0.001527, 0.064000, -0.016000, 0.960000, 8.746374, -2.899672, 48.726185, -0.006227, -0.092092, 0.414304

1497933742.004007, 0.018631, -0.011912, 0.001833, 0.080000, -0.032000, 0.960000, 8.731123, -2.872411, 48.730535, -0.006514, -0.092027, 0.411285

1497933742.017313, 0.018021, -0.015272, -0.000305, 0.096000, -0.016000, 0.976000, 8.799111, -2.855474, 48.719300, -0.006472, -0.092353, 0.412585

1497933742.030633, 0.021991, -0.012523, 0.000611, 0.096000, -0.016000, 0.976000, 8.853571, -2.841901, 48.710226, -0.006381, -0.092636, 0.413706

1497933742.043985, 0.022602, -0.012217, 0.002749, 0.080000, -0.016000, 0.960000, 8.804160, -2.829186, 48.719921, -0.006294, -0.092604, 0.413539

1497933742.057341, 0.019853, -0.018326, 0.000305, 0.080000, -0.016000, 0.896000, 8.764633, -2.819014, 48.727637, -0.006266, -0.092773, 0.413623

1497933742.070678, 0.018937, -0.015577, 0.000916, 0.096000, -0.016000, 0.944000, 8.733013, -2.810877, 48.733784, -0.006227, -0.093155, 0.415088

1497933742.084013, 0.020159, -0.017715, 0.002443, 0.064000, -0.032000, 0.992000, 8.749312, -2.869144, 48.727465, -0.006433, -0.092765, 0.411380

1497933742.097339, 0.020159, -0.014966, 0.001222, 0.064000, -0.032000, 0.992000, 8.762335, -2.915729, 48.722359, -0.006637, -0.092349, 0.407878

1497933742.110681, 0.016493, -0.011912, 0.002443, 0.064000, 0.000000, 0.976000, 8.773199, -2.909535, 48.720774, -0.006312, -0.091963, 0.409386

1497933742.124015, 0.017715, -0.010079, 0.003054, 0.080000, -0.016000, 0.976000, 8.781887, -2.904580, 48.719505, -0.006286, -0.091891, 0.409555

1497933742.137379, 0.021686, -0.014966, -0.001222, 0.080000, -0.016000, 0.976000, 8.788835, -2.900617, 48.718488, -0.006204, -0.091886, 0.409640

1497933742.150799, 0.019242, -0.016188, 0.001527, 0.080000, -0.032000, 0.976000, 8.798403, -2.920572, 48.715569, -0.006469, -0.091859, 0.406863

1497933742.164191, 0.020159, -0.013439, 0.002749, 0.080000, -0.032000, 0.976000, 8.806062, -2.936546, 48.713224, -0.006720, -0.091798, 0.404212

1497933742.177526, 0.018631, -0.010690, 0.003054, 0.064000, -0.016000, 1.008000, 8.757506, -2.923821, 48.722742, -0.006652, -0.091366, 0.403442

1497933742.190866, 0.014966, -0.012828, 0.003971, 0.080000, -0.016000, 0.976000, 8.718725, -2.913658, 48.730306, -0.006658, -0.091343, 0.403874

1497933742.204206, 0.017715, -0.012523, 0.004887, 0.080000, -0.016000, 0.976000, 8.687742, -2.905537, 48.736324, -0.006629, -0.091317, 0.404329

1497933742.217535, 0.019548, -0.015882, 0.000916, 0.080000, -0.032000, 1.008000, 8.688671, -2.856858, 48.739036, -0.006860, -0.091248, 0.401580

1497933742.230862, 0.015272, -0.014661, 0.003971, 0.080000, -0.032000, 0.976000, 8.689407, -2.817917, 48.741172, -0.007169, -0.091212, 0.398705

1497933742.244192, 0.021075, -0.012523, 0.001833, 0.080000, -0.032000, 0.976000, 8.740104, -2.832417, 48.731266, -0.007394, -0.091150, 0.395865

1497933742.257512, 0.018937, -0.012217, 0.001833, 0.096000, -0.032000, 0.976000, 8.780707, -2.844029, 48.723290, -0.007662, -0.091423, 0.394061

1497933742.270837, 0.019853, -0.016188, 0.001527, 0.096000, -0.032000, 0.976000, 8.813218, -2.853327, 48.716876, -0.007912, -0.091743, 0.392285

1497933742.284167, 0.019548, -0.014355, 0.002138, 0.112000, -0.048000, 0.944000, 8.813448, -2.903050, 48.713896, -0.008576, -0.092346, 0.387273

1497933742.297491, 0.021686, -0.012828, 0.004887, 0.080000, 0.000000, 0.992000, 8.813626, -2.942820, 48.711478, -0.008146, -0.092263, 0.390466

1497933742.310823, 0.017410, -0.012217, 0.003360, 0.080000, 0.000000, 0.992000, 8.826358, -2.971538, 48.707429, -0.007779, -0.092175, 0.393637

1497933742.324150, 0.019853, -0.012217, 0.000916, 0.064000, -0.016000, 1.008000, 8.836521, -2.994466, 48.704182, -0.007676, -0.091757, 0.393175

1497933742.337474, 0.021380, -0.017104, 0.000916, 0.064000, -0.016000, 0.992000, 8.844637, -3.012780, 48.701579, -0.007562, -0.091432, 0.392790

1497933742.350796, 0.020464, -0.014661, 0.002443, 0.064000, -0.016000, 0.992000, 8.830568, -2.984368, 48.705881, -0.007463, -0.091081, 0.392363

1497933742.364119, 0.019242, -0.013439, 0.000916, 0.080000, 0.000000, 1.008000, 8.819320, -2.961655, 48.709306, -0.007081, -0.091009, 0.395334

1497933742.377435, 0.018326, -0.014966, -0.000305, 0.080000, 0.000000, 1.008000, 8.818783, -2.946321, 48.710333, -0.006717, -0.090959, 0.398186

1497933742.390756, 0.018326, -0.018937, 0.000611, 0.080000, -0.032000, 0.976000, 8.839394, -2.933810, 48.707352, -0.006988, -0.090989, 0.395634

1497933742.404079, 0.018021, -0.016493, 0.001527, 0.064000, -0.016000, 0.992000, 8.855895, -2.923792, 48.704957, -0.006928, -0.090669, 0.394922

1497933742.417396, 0.013439, -0.013439, 0.000611, 0.064000, -0.016000, 0.992000, 8.830780, -2.961009, 48.707269, -0.006930, -0.090317, 0.394356

1497933742.430717, 0.014355, -0.014661, 0.000611, 0.096000, 0.000000, 0.992000, 8.810651, -2.990828, 48.709092, -0.006591, -0.090615, 0.399133

1497933742.444040, 0.017715, -0.014050, -0.001833, 0.080000, 0.000000, 0.976000, 8.794524, -3.014713, 48.710534, -0.006241, -0.090612, 0.402371

1497933742.457354, 0.017410, -0.020464, 0.003665, 0.080000, 0.000000, 0.976000, 8.837115, -2.965117, 48.705870, -0.005907, -0.090694, 0.405388

1497933742.470676, 0.019853, -0.016188, 0.003971, 0.080000, -0.032000, 0.960000, 8.871137, -2.925484, 48.702082, -0.006189, -0.090716, 0.402638

1497933742.484023, 0.020159, -0.017410, 0.003971, 0.080000, -0.032000, 0.960000, 8.855984, -2.915946, 48.705411, -0.006462, -0.090754, 0.399922

1497933742.497380, 0.019242, -0.010079, 0.002443, 0.064000, -0.032000, 1.008000, 8.843867, -2.908319, 48.708069, -0.006673, -0.090298, 0.396619

1497933742.510726, 0.016799, -0.016188, 0.001527, 0.080000, 0.000000, 0.992000, 8.834177, -2.902220, 48.710191, -0.006335, -0.090304, 0.399421

1497933742.524072, 0.021075, -0.016493, 0.001833, 0.080000, 0.000000, 0.992000, 8.825972, -2.940687, 48.709371, -0.005950, -0.090315, 0.402302

1497933742.537404, 0.021380, -0.014355, 0.001222, 0.096000, -0.032000, 0.992000, 8.819405, -2.971448, 48.708694, -0.006202, -0.090606, 0.400877

1497933742.550736, 0.014966, -0.014966, 0.002138, 0.064000, -0.032000, 0.976000, 8.877965, -2.930370, 48.700543, -0.006497, -0.090255, 0.397510

1497933742.564090, 0.019853, -0.013744, 0.005498, 0.064000, -0.032000, 0.976000, 8.924775, -2.897520, 48.693953, -0.006726, -0.089894, 0.394109

1497933742.577432, 0.019242, -0.014661, 0.005192, 0.096000, -0.016000, 0.992000, 8.962199, -2.871248, 48.688635, -0.006665, -0.090223, 0.395462

1497933742.590780, 0.018021, -0.009774, 0.002443, 0.096000, -0.016000, 0.992000, 8.954177, -2.873722, 48.689965, -0.006617, -0.090481, 0.396776

1497933742.604123, 0.018021, -0.014355, 0.002749, 0.080000, 0.000000, 0.976000, 8.947753, -2.875702, 48.691029, -0.006264, -0.090487, 0.399421

1497933742.617467, 0.019853, -0.014050, 0.003054, 0.048000, -0.048000, 0.960000, 8.946449, -2.922047, 48.688509, -0.006746, -0.089726, 0.392976

1497933742.630826, 0.023213, -0.011912, 0.001833, 0.048000, -0.048000, 0.960000, 8.945399, -2.959170, 48.686460, -0.007180, -0.088958, 0.386758

1497933742.644180, 0.021075, -0.010996, 0.004581, 0.080000, -0.016000, 0.960000, 8.944554, -2.988897, 48.684800, -0.007102, -0.088988, 0.387497

1497933742.657522, 0.020464, -0.013439, 0.005498, 0.048000, 0.000000, 0.976000, 8.931867, -2.972366, 48.688141, -0.006714, -0.088364, 0.388362

1497933742.670864, 0.021991, -0.015272, 0.003971, 0.048000, 0.000000, 0.976000, 8.921688, -2.959106, 48.690815, -0.006311, -0.087777, 0.389169

1497933742.684210, 0.020159, -0.015272, 0.000916, 0.064000, -0.016000, 0.976000, 8.912694, -2.984603, 48.690906, -0.006245, -0.087528, 0.388719

1497933742.697569, 0.021075, -0.014966, 0.002749, 0.064000, -0.016000, 0.976000, 8.905516, -3.004941, 48.690968, -0.006172, -0.087281, 0.388373

1497933742.710941, 0.021991, -0.016799, 0.001527, 0.096000, -0.016000, 0.960000, 8.899786, -3.021174, 48.691011, -0.006081, -0.087760, 0.390703

1497933742.724305, 0.019548, -0.013134, 0.001222, 0.080000, -0.032000, 0.976000, 8.882942, -3.015609, 48.694432, -0.006353, -0.087783, 0.388573

1497933742.737643, 0.025656, -0.017104, 0.003971, 0.080000, -0.032000, 0.976000, 8.869460, -3.011155, 48.697165, -0.006544, -0.087858, 0.386521

1497933742.751027, 0.021686, -0.018021, 0.001222, 0.096000, -0.016000, 0.960000, 8.930908, -2.966358, 48.688683, -0.006452, -0.088341, 0.388608

1497933742.764380, 0.017104, -0.017410, 0.002749, 0.096000, -0.016000, 0.976000, 8.980134, -2.930455, 48.681803, -0.006422, -0.088771, 0.390328

1497933742.777715, 0.019853, -0.014355, 0.002443, 0.096000, -0.016000, 0.976000, 9.019558, -2.901690, 48.676237, -0.006358, -0.089150, 0.391824

1497933742.791047, 0.022602, -0.018021, 0.004581, 0.096000, -0.016000, 0.960000, 8.941058, -2.900164, 48.690808, -0.006266, -0.089604, 0.393572

1497933742.804381, 0.019242, -0.016799, 0.003360, 0.096000, -0.016000, 0.960000, 8.878200, -2.898937, 48.702382, -0.006218, -0.090034, 0.395393

1497933742.817720, 0.016188, -0.016188, 0.000916, 0.080000, 0.000000, 0.992000, 8.878422, -2.893083, 48.702689, -0.005896, -0.090046, 0.398105

1497933742.831054, 0.020159, -0.016493, 0.003665, 0.096000, -0.016000, 0.976000, 8.878599, -2.888413, 48.702934, -0.005841, -0.090429, 0.399687

1497933742.844384, 0.018937, -0.015882, 0.006414, 0.096000, -0.016000, 0.976000, 8.878741, -2.884684, 48.703130, -0.005807, -0.090796, 0.401259

1497933742.857723, 0.016799, -0.014355, 0.003054, 0.080000, -0.032000, 0.960000, 8.845272, -2.884928, 48.709205, -0.006129, -0.090791, 0.398448

1497933742.871126, 0.021380, -0.018326, 0.000305, 0.064000, -0.016000, 0.944000, 8.818475, -2.885122, 48.714052, -0.006056, -0.090565, 0.397650

1497933742.884465, 0.018631, -0.015272, 0.000916, 0.064000, -0.016000, 0.944000, 8.835327, -2.868872, 48.711958, -0.006022, -0.090303, 0.396804

1497933742.897826, 0.018631, -0.018021, 0.000305, 0.080000, -0.016000, 0.976000, 8.848859, -2.855822, 48.710268, -0.005986, -0.090369, 0.396916

1497933742.911188, 0.017104, -0.013744, 0.002749, 0.080000, -0.016000, 0.976000, 8.859716, -2.845349, 48.708908, -0.005974, -0.090377, 0.397004

1497933742.924541, 0.020159, -0.014355, -0.001222, 0.080000, -0.032000, 0.976000, 8.871997, -2.874825, 48.704941, -0.006232, -0.090355, 0.394190

1497933742.937869, 0.020769, -0.014050, 0.001527, 0.080000, -0.016000, 0.976000, 8.881803, -2.898363, 48.701759, -0.006167, -0.090368, 0.394469

1497933742.951198, 0.016799, -0.018326, 0.002138, 0.080000, -0.016000, 0.976000, 8.864465, -2.894244, 48.705163, -0.006156, -0.090437, 0.394762

1497933742.964527, 0.021991, -0.014661, 0.003054, 0.080000, -0.016000, 0.976000, 8.850619, -2.890955, 48.707876, -0.006078, -0.090457, 0.395070

1497933742.977866, 0.020159, -0.015577, 0.003971, 0.064000, -0.016000, 1.008000, 8.839557, -2.888327, 48.710041, -0.006004, -0.090115, 0.394292

1497933742.991225, 0.017715, -0.012828, 0.002138, 0.064000, -0.016000, 1.008000, 8.812959, -2.974699, 48.709662, -0.005966, -0.089746, 0.393800

1497933743.004564, 0.022602, -0.016493, 0.002138, 0.064000, -0.016000, 0.960000, 8.791662, -3.043782, 48.709243, -0.005885, -0.089497, 0.393628

1497933743.017877, 0.018021, -0.014661, 0.002749, 0.064000, -0.016000, 0.960000, 8.770632, -3.075856, 48.711019, -0.005868, -0.089229, 0.393593

1497933743.031209, 0.020464, -0.013134, 0.001527, 0.080000, -0.032000, 0.976000, 8.732733, -3.101730, 48.716187, -0.006134, -0.089228, 0.391912

1497933743.044570, 0.022602, -0.016188, 0.003360, 0.096000, -0.032000, 0.992000, 8.702426, -3.122417, 48.720289, -0.006365, -0.089578, 0.391572

1497933743.057906, 0.021686, -0.017410, 0.003054, 0.096000, -0.032000, 0.992000, 8.729701, -3.054716, 48.719701, -0.006605, -0.089933, 0.390892

1497933743.071242, 0.015577, -0.018631, 0.000611, 0.080000, -0.016000, 0.976000, 8.751535, -3.000481, 48.719154, -0.006602, -0.090018, 0.391782

1497933743.084577, 0.013439, -0.016799, 0.000916, 0.064000, -0.016000, 0.976000, 8.769013, -2.957046, 48.718667, -0.006618, -0.089744, 0.391367

1497933743.097901, 0.017715, -0.012828, 0.003054, 0.064000, -0.016000, 0.976000, 8.824998, -2.943542, 48.709375, -0.006580, -0.089424, 0.390878

1497933743.111226, 0.016493, -0.013744, 0.000916, 0.064000, -0.032000, 0.976000, 8.869793, -2.932732, 48.701890, -0.006851, -0.089083, 0.387709

1497933743.124556, 0.016799, -0.010385, 0.003360, 0.064000, -0.032000, 0.976000, 8.842305, -2.924771, 48.707367, -0.007117, -0.088707, 0.384630

1497933743.137900, 0.020464, -0.014966, 0.003971, 0.064000, -0.016000, 0.992000, 8.820299, -2.918397, 48.711739, -0.007029, -0.088414, 0.384195

1497933743.151382, 0.023213, -0.015272, 0.005192, 0.080000, -0.016000, 0.960000, 8.802684, -2.913295, 48.715231, -0.006923, -0.088513, 0.384952

1497933743.164777, 0.019242, -0.016493, 0.001222, 0.080000, -0.016000, 0.960000, 8.834187, -2.997205, 48.704437, -0.006869, -0.088627, 0.385885

1497933743.178109, 0.020159, -0.017104, -0.000000, 0.080000, -0.032000, 0.960000, 8.859386, -3.064373, 48.695679, -0.007130, -0.088715, 0.384023

1497933743.191449, 0.016188, -0.014966, 0.003665, 0.096000, -0.016000, 1.008000, 8.867927, -3.034233, 48.696012, -0.007091, -0.089044, 0.386252

1497933743.204774, 0.016493, -0.017715, 0.002443, 0.096000, -0.016000, 1.008000, 8.874775, -3.010059, 48.696265, -0.007048, -0.089402, 0.388318

1497933743.218095, 0.019548, -0.015272, 0.001527, 0.080000, -0.048000, 0.992000, 8.880262, -2.990679, 48.696458, -0.007593, -0.089316, 0.383130

1497933743.231418, 0.024435, -0.013744, 0.003054, 0.080000, -0.048000, 0.992000, 8.829131, -2.993129, 48.705604, -0.008066, -0.089216, 0.378099

1497933743.244746, 0.022297, -0.016493, -0.000916, 0.096000, -0.032000, 0.976000, 8.788263, -2.995084, 48.712875, -0.008271, -0.089597, 0.377288

1497933743.258069, 0.017410, -0.011606, 0.002749, 0.080000, -0.048000, 0.976000, 8.823428, -2.997391, 48.706376, -0.008841, -0.089489, 0.372268

1497933743.271395, 0.018937, -0.013744, 0.002138, 0.080000, -0.048000, 0.976000, 8.851549, -2.999235, 48.701159, -0.009379, -0.089415, 0.367334

1497933743.284784, 0.020159, -0.018021, 0.004276, 0.064000, -0.048000, 0.976000, 8.874040, -3.000710, 48.696975, -0.009849, -0.089071, 0.362177

1497933743.298194, 0.018631, -0.014050, 0.002443, 0.096000, -0.016000, 0.992000, 8.896565, -2.981522, 48.694044, -0.009724, -0.089411, 0.364677

1497933743.311573, 0.015577, -0.011912, 0.004581, 0.096000, -0.016000, 0.992000, 8.914597, -2.966159, 48.691684, -0.009645, -0.089715, 0.367062

1497933743.324911, 0.016493, -0.014050, 0.002749, 0.080000, -0.016000, 0.944000, 8.920164, -2.972817, 48.690259, -0.009582, -0.089799, 0.368213

1497933743.338243, 0.018631, -0.015882, 0.000611, 0.080000, -0.016000, 0.944000, 8.924611, -2.978137, 48.689119, -0.009490, -0.089905, 0.369325

1497933743.351573, 0.021686, -0.014050, -0.000305, 0.080000, -0.016000, 0.992000, 8.928164, -2.982388, 48.688207, -0.009344, -0.089903, 0.370242

1497933743.364902, 0.021686, -0.012828, 0.003054, 0.080000, -0.016000, 0.992000, 8.858995, -2.983613, 48.700765, -0.009205, -0.089884, 0.371293

1497933743.378223, 0.018326, -0.017104, 0.002138, 0.080000, -0.016000, 0.992000, 8.803757, -2.984587, 48.710721, -0.009112, -0.089923, 0.372400

1497933743.391573, 0.021075, -0.015882, 0.000916, 0.080000, -0.016000, 0.976000, 8.856634, -3.010502, 48.699540, -0.008987, -0.089972, 0.373532

1497933743.404899, 0.020159, -0.012523, 0.002443, 0.080000, -0.016000, 0.992000, 8.898956, -3.031247, 48.690537, -0.008875, -0.089949, 0.374608

1497933743.418216, 0.021380, -0.013134, 0.001222, 0.080000, -0.016000, 0.992000, 8.932828, -3.047850, 48.683297, -0.008747, -0.089934, 0.375651

1497933743.431563, 0.018937, -0.016493, 0.002138, 0.080000, -0.016000, 1.008000, 8.934974, -3.016383, 48.684864, -0.008649, -0.089938, 0.376527

1497933743.444889, 0.017104, -0.014966, 0.001222, 0.080000, -0.016000, 1.008000, 8.936688, -2.991214, 48.686102, -0.008576, -0.089921, 0.377286

1497933743.458239, 0.016188, -0.014050, 0.002749, 0.080000, -0.016000, 0.976000, 8.959411, -2.949087, 48.684495, -0.008527, -0.089944, 0.377978

1497933743.471611, 0.018021, -0.011301, 0.003054, 0.080000, 0.000000, 0.976000, 8.977580, -2.915392, 48.683178, -0.008136, -0.089916, 0.381069

1497933743.484956, 0.011912, -0.013134, -0.000611, 0.080000, 0.000000, 0.976000, 8.992107, -2.888441, 48.682103, -0.007829, -0.089915, 0.383945

1497933743.498296, 0.020769, -0.012828, 0.004276, 0.080000, -0.048000, 0.976000, 8.952415, -2.908057, 48.688250, -0.008361, -0.089804, 0.378393

1497933743.511641, 0.016493, -0.011606, 0.003665, 0.080000, -0.048000, 0.912000, 8.920709, -2.923722, 48.693132, -0.009021, -0.089777, 0.372429

1497933743.524976, 0.020769, -0.014966, 0.003971, 0.096000, -0.048000, 0.944000, 8.912756, -2.920147, 48.694802, -0.009614, -0.090093, 0.367276

1497933743.538319, 0.019853, -0.014050, 0.002443, 0.080000, -0.016000, 0.976000, 8.906378, -2.917280, 48.696141, -0.009496, -0.090113, 0.368134

1497933743.551716, 0.020464, -0.016493, 0.004276, 0.080000, -0.016000, 0.976000, 8.901266, -2.914982, 48.697214, -0.009374, -0.090165, 0.368999

1497933743.565065, 0.018937, -0.017715, 0.002443, 0.080000, -0.032000, 0.976000, 8.855043, -2.891787, 48.707022, -0.009588, -0.090203, 0.366877

1497933743.578408, 0.021686, -0.016799, 0.002443, 0.096000, -0.032000, 0.960000, 8.817999, -2.873200, 48.714842, -0.009787, -0.090597, 0.365735

1497933743.591762, 0.018326, -0.015272, 0.004887, 0.096000, -0.032000, 0.960000, 8.760796, -3.045985, 48.714666, -0.010025, -0.090973, 0.365532

1497933743.605110, 0.022907, -0.013439, 0.002138, 0.080000, -0.032000, 0.960000, 8.715160, -3.183545, 48.714056, -0.010191, -0.090982, 0.364742

1497933743.618451, 0.021991, -0.014661, 0.003665, 0.080000, -0.032000, 0.960000, 8.678734, -3.293164, 48.713272, -0.010369, -0.091011, 0.364460

1497933743.631806, 0.021075, -0.012828, 0.001527, 0.080000, -0.016000, 0.992000, 8.710532, -3.213113, 48.712943, -0.010222, -0.090974, 0.366619

1497933743.645159, 0.019853, -0.015272, 0.001833, 0.080000, -0.016000, 0.992000, 8.735981, -3.148987, 48.712573, -0.010092, -0.090969, 0.368481

1497933743.658546, 0.019548, -0.014355, 0.006720, 0.080000, -0.016000, 0.992000, 8.756349, -3.097631, 48.712209, -0.009973, -0.090952, 0.370165

1497933743.671993, 0.019548, -0.010079, 0.001222, 0.080000, -0.048000, 0.976000, 8.793764, -3.056275, 48.708081, -0.010476, -0.090810, 0.365523

1497933743.685373, 0.021991, -0.015272, 0.004581, 0.080000, -0.016000, 0.992000, 8.823704, -3.023170, 48.704732, -0.010313, -0.090807, 0.366879

1497933743.698723, 0.022602, -0.017410, 0.005803, 0.080000, -0.016000, 0.992000, 8.724730, -3.035477, 48.721794, -0.010148, -0.090831, 0.368422

1497933743.712091, 0.021380, -0.016493, 0.005192, 0.080000, 0.000000, 0.976000, 8.645725, -3.045288, 48.735264, -0.009691, -0.090846, 0.372750

1497933743.725429, 0.021991, -0.015882, 0.003665, 0.080000, 0.000000, 0.976000, 8.582635, -3.053115, 48.745924, -0.009235, -0.090852, 0.377122

1497933743.738737, 0.020159, -0.014661, 0.002138, 0.048000, 0.000000, 1.008000, 8.720362, -3.173216, 48.713799, -0.008826, -0.090171, 0.378822

1497933743.752063, 0.019853, -0.017715, 0.002443, 0.064000, 0.000000, 0.976000, 8.830638, -3.269423, 48.687565, -0.008429, -0.089897, 0.381810

1497933743.765391, 0.017715, -0.017410, 0.002443, 0.064000, 0.000000, 0.976000, 8.832125, -3.194084, 48.692296, -0.008065, -0.089626, 0.384534

1497933743.778716, 0.021380, -0.011606, 0.003665, 0.080000, -0.016000, 0.976000, 8.833302, -3.133740, 48.696003, -0.007962, -0.089625, 0.385912

1497933743.792055, 0.018937, -0.013744, 0.000611, 0.064000, -0.016000, 0.960000, 8.834234, -3.085420, 48.698919, -0.007890, -0.089344, 0.385953

1497933743.805437, 0.018631, -0.014050, 0.000305, 0.064000, -0.016000, 0.960000, 8.799930, -3.151057, 48.700927, -0.007825, -0.089074, 0.386233

1497933743.818911, 0.017715, -0.018021, 0.001527, 0.064000, -0.016000, 0.992000, 8.772532, -3.203448, 48.702452, -0.007764, -0.088820, 0.386663

1497933743.832387, 0.020159, -0.016188, 0.001833, 0.064000, -0.016000, 0.992000, 8.772946, -3.144569, 48.706215, -0.007670, -0.088547, 0.386910

1497933743.845851, 0.017410, -0.014966, 0.000611, 0.080000, -0.032000, 0.992000, 8.773269, -3.097311, 48.709185, -0.007926, -0.088562, 0.385306

1497933743.859304, 0.021686, -0.014355, 0.002749, 0.096000, -0.032000, 0.992000, 8.773523, -3.059405, 48.711535, -0.008132, -0.088901, 0.384697

1497933743.872760, 0.021075, -0.011606, 0.003665, 0.096000, -0.032000, 0.992000, 8.828479, -3.047148, 48.702373, -0.008343, -0.089195, 0.383973

1497933743.886216, 0.014966, -0.014355, 0.001527, 0.080000, -0.048000, 0.976000, 8.872410, -3.037345, 48.695001, -0.008941, -0.089133, 0.378941

1497933743.899668, 0.019242, -0.014661, 0.006414, 0.080000, -0.016000, 0.992000, 8.874543, -2.967560, 48.698915, -0.008842, -0.089155, 0.379786

1497933743.913123, 0.015272, -0.014661, 0.004581, 0.080000, -0.016000, 0.992000, 8.876241, -2.911627, 48.701982, -0.008794, -0.089176, 0.380395

1497933743.926582, 0.015882, -0.013439, 0.000916, 0.080000, -0.016000, 0.976000, 8.877593, -2.866814, 48.704394, -0.008740, -0.089207, 0.380839

1497933743.940036, 0.018937, -0.012828, 0.000916, 0.112000, -0.016000, 0.992000, 8.873236, -2.938652, 48.700906, -0.008595, -0.089853, 0.384655

1497933743.953492, 0.018021, -0.015882, -0.000916, 0.112000, -0.016000, 0.992000, 8.869738, -2.996108, 48.698042, -0.008463, -0.090527, 0.388620

1497933743.966951, 0.018937, -0.013439, 0.002138, 0.080000, -0.016000, 1.008000, 8.863360, -2.975194, 48.700486, -0.008367, -0.090480, 0.389205

1497933743.980412, 0.021075, -0.014966, 0.001833, 0.080000, -0.016000, 1.008000, 8.858259, -2.958478, 48.702432, -0.008244, -0.090453, 0.389726

1497933743.993861, 0.018326, -0.015577, 0.001833, 0.080000, -0.032000, 0.960000, 8.854181, -2.945113, 48.703984, -0.008497, -0.090482, 0.387356

1497933744.007318, 0.019853, -0.015577, 0.002443, 0.096000, 0.000000, 0.992000, 8.913183, -3.042606, 48.687226, -0.008056, -0.090787, 0.392221

1497933744.020772, 0.022297, -0.014966, 0.006414, 0.096000, 0.000000, 0.992000, 8.960299, -3.120503, 48.673645, -0.007596, -0.091078, 0.397174

1497933744.034218, 0.020159, -0.011301, -0.000000, 0.080000, -0.016000, 0.992000, 8.913969, -3.140265, 48.680881, -0.007506, -0.091019, 0.398084

1497933744.047675, 0.019242, -0.016493, 0.001527, 0.048000, 0.000000, 0.992000, 8.876900, -3.156072, 48.686632, -0.007126, -0.090379, 0.399167

1497933744.061138, 0.014966, -0.016493, -0.001222, 0.048000, 0.000000, 0.992000, 8.847241, -3.168716, 48.691209, -0.006808, -0.089753, 0.400260

1497933744.074595, 0.014355, -0.013439, 0.003665, 0.096000, -0.016000, 1.008000, 8.849904, -3.093061, 48.695589, -0.006799, -0.090043, 0.402417

1497933744.088055, 0.021991, -0.018021, 0.003054, 0.096000, -0.016000, 1.008000, 8.852021, -3.032478, 48.699015, -0.006690, -0.090386, 0.404296

1497933744.101521, 0.025351, -0.018326, 0.003665, 0.096000, -0.032000, 0.992000, 8.840187, -3.044918, 48.700388, -0.006874, -0.090734, 0.403153

1497933744.114972, 0.019853, -0.014661, 0.006109, 0.096000, -0.016000, 0.976000, 8.830740, -3.054849, 48.701480, -0.006802, -0.091083, 0.405405

1497933744.128432, 0.018326, -0.010385, 0.001833, 0.096000, -0.016000, 0.976000, 8.823195, -3.062780, 48.702350, -0.006747, -0.091369, 0.407601

1497933744.141900, 0.017715, -0.014355, 0.003360, 0.064000, -0.016000, 0.960000, 8.826137, -3.028627, 48.703952, -0.006709, -0.091059, 0.407078

1497933744.155406, 0.019853, -0.015272, 0.002443, 0.080000, -0.032000, 0.976000, 8.828489, -3.001285, 48.705219, -0.006959, -0.091043, 0.404643

1497933744.168938, 0.019242, -0.015882, 0.004581, 0.080000, -0.032000, 0.976000, 8.872596, -2.978930, 48.698576, -0.007213, -0.091035, 0.402153

1497933744.182422, 0.021991, -0.014355, 0.000916, 0.080000, -0.032000, 0.992000, 8.907881, -2.961040, 48.693225, -0.007410, -0.090981, 0.399586

1497933744.195887, 0.022297, -0.017104, 0.003054, 0.080000, -0.032000, 0.992000, 8.936109, -2.946726, 48.688921, -0.007602, -0.090963, 0.397018

1497933744.209346, 0.022297, -0.017410, 0.003360, 0.064000, -0.016000, 0.976000, 8.942361, -2.893409, 48.690971, -0.007476, -0.090679, 0.396129

1497933744.222818, 0.016799, -0.018326, 0.004887, 0.096000, -0.016000, 0.976000, 8.947361, -2.850702, 48.692571, -0.007434, -0.091073, 0.397486

1497933744.236272, 0.019853, -0.019548, 0.002443, 0.096000, -0.016000, 0.976000, 8.916864, -2.856154, 48.697846, -0.007350, -0.091476, 0.398865

1497933744.249727, 0.017715, -0.015882, 0.002138, 0.064000, -0.016000, 0.976000, 8.892508, -2.860508, 48.702044, -0.007287, -0.091160, 0.397878

1497933744.263194, 0.019853, -0.012217, 0.002749, 0.080000, -0.032000, 0.960000, 8.873050, -2.863985, 48.705388, -0.007537, -0.091123, 0.395020

1497933744.276646, 0.022602, -0.019548, 0.003054, 0.080000, -0.032000, 0.960000, 8.844932, -2.869750, 48.710163, -0.007747, -0.091185, 0.392275

1497933744.290097, 0.024129, -0.019853, 0.001833, 0.064000, -0.032000, 0.976000, 8.822414, -2.874365, 48.713974, -0.007888, -0.090891, 0.388931

1497933744.303564, 0.017410, -0.016493, 0.002443, 0.064000, -0.032000, 0.992000, 8.790992, -2.939038, 48.715796, -0.008108, -0.090543, 0.385950

1497933744.317021, 0.020464, -0.015272, 0.000916, 0.064000, -0.032000, 0.992000, 8.765893, -2.990661, 48.717177, -0.008286, -0.090189, 0.383202

1497933744.330486, 0.018937, -0.020159, 0.001527, 0.064000, -0.016000, 0.976000, 8.745840, -3.031887, 48.718233, -0.008201, -0.089961, 0.383229

1497933744.343945, 0.019853, -0.016799, 0.003665, 0.064000, -0.016000, 0.976000, 8.760215, -2.980832, 48.718801, -0.008105, -0.089691, 0.383107

1497933744.357401, 0.018326, -0.013744, 0.001527, 0.080000, -0.032000, 0.944000, 8.771715, -2.939957, 48.719215, -0.008375, -0.089740, 0.380901

1497933744.370933, 0.020159, -0.013134, 0.000305, 0.080000, -0.032000, 0.976000, 8.805770, -2.951811, 48.712355, -0.008587, -0.089729, 0.378796

1497933744.384400, 0.020159, -0.014661, 0.001527, 0.080000, -0.032000, 0.976000, 8.833039, -2.961304, 48.706841, -0.008798, -0.089738, 0.376756

1497933744.398296, 0.023213, -0.014050, -0.000000, 0.080000, -0.032000, 0.960000, 8.854871, -2.968904, 48.702414, -0.008966, -0.089772, 0.374713

1497933744.412109, 0.020769, -0.014355, 0.003665, 0.096000, -0.032000, 0.976000, 8.842732, -2.972358, 48.704409, -0.009169, -0.090120, 0.373846

1497933744.425735, 0.020464, -0.014355, 0.002138, 0.096000, -0.032000, 0.976000, 8.833030, -2.975119, 48.706001, -0.009373, -0.090458, 0.373003

1497933744.439349, 0.021075, -0.014966, 0.003054, 0.080000, -0.016000, 0.976000, 8.854618, -3.001661, 48.700452, -0.009241, -0.090488, 0.374124

1497933744.452983, 0.021686, -0.016493, 0.001833, 0.080000, -0.032000, 0.960000, 8.871900, -3.022913, 48.695992, -0.009429, -0.090539, 0.372349

1497933744.466605, 0.015272, -0.013439, 0.001833, 0.080000, -0.032000, 0.960000, 8.885733, -3.039925, 48.692411, -0.009698, -0.090549, 0.370658

1497933744.480306, 0.021380, -0.015577, 0.003971, 0.080000, 0.000000, 0.992000, 8.816872, -3.034234, 48.705282, -0.009242, -0.090539, 0.374439

1497933744.493951, 0.023824, -0.014966, 0.004276, 0.080000, 0.000000, 0.992000, 8.761665, -3.029668, 48.715527, -0.008763, -0.090522, 0.378239

1497933744.507411, 0.021380, -0.014966, 0.000611, 0.080000, -0.032000, 0.960000, 8.814952, -3.000167, 48.707739, -0.008966, -0.090548, 0.376340

1497933744.520788, 0.019853, -0.015577, 0.002443, 0.080000, -0.016000, 0.976000, 8.857522, -2.976589, 48.701463, -0.008861, -0.090580, 0.377295

1497933744.534155, 0.016799, -0.014661, 0.004276, 0.080000, -0.016000, 0.976000, 8.891541, -2.957743, 48.696412, -0.008800, -0.090598, 0.378138

1497933744.547507, 0.022297, -0.016493, 0.002749, 0.080000, -0.032000, 0.976000, 8.884872, -2.967723, 48.697022, -0.008982, -0.090612, 0.376097

1497933744.560883, 0.020464, -0.016493, 0.002443, 0.064000, -0.032000, 0.960000, 8.879530, -2.975717, 48.697508, -0.009170, -0.090313, 0.373335

1497933744.574237, 0.017410, -0.014966, -0.001222, 0.064000, -0.032000, 0.960000, 8.845805, -2.957729, 48.704741, -0.009391, -0.090001, 0.370545

1497933744.587576, 0.020464, -0.017104, 0.002749, 0.080000, -0.016000, 0.976000, 8.818839, -2.943347, 48.710502, -0.009271, -0.090064, 0.371566

1497933744.600925, 0.021075, -0.016188, 0.002443, 0.080000, -0.016000, 0.976000, 8.797275, -2.931846, 48.715095, -0.009145, -0.090113, 0.372555

1497933744.614277, 0.021686, -0.018326, 0.001833, 0.064000, -0.048000, 1.008000, 8.775343, -2.964691, 48.717063, -0.009560, -0.089721, 0.367398

1497933744.627628, 0.017410, -0.013439, 0.000611, 0.080000, 0.000000, 0.976000, 8.757816, -2.990930, 48.718613, -0.009158, -0.089721, 0.371302

1497933744.640987, 0.012828, -0.012828, 0.001222, 0.080000, 0.000000, 0.976000, 8.816242, -2.948949, 48.710634, -0.008823, -0.089715, 0.374899

1497933744.654339, 0.014966, -0.016188, 0.001222, 0.064000, -0.016000, 0.976000, 8.862999, -2.915339, 48.704171, -0.008776, -0.089441, 0.374583

1497933744.667678, 0.019242, -0.015272, 0.000611, 0.064000, -0.016000, 0.992000, 8.900413, -2.888435, 48.698951, -0.008667, -0.089138, 0.374121

1497933744.681021, 0.021075, -0.014661, -0.003971, 0.064000, -0.016000, 0.992000, 8.930351, -2.866901, 48.694743, -0.008529, -0.088834, 0.373507

1497933744.694392, 0.022297, -0.017104, 0.002138, 0.096000, 0.000000, 0.992000, 8.954305, -2.849667, 48.691355, -0.008054, -0.089192, 0.377940

1497933744.707749, 0.021991, -0.014661, 0.001833, 0.096000, 0.000000, 0.992000, 8.926292, -2.900165, 48.693517, -0.007592, -0.089512, 0.382505

1497933744.721105, 0.017104, -0.011606, 0.001222, 0.096000, -0.016000, 0.976000, 8.903885, -2.940539, 48.695198, -0.007537, -0.089842, 0.384517

1497933744.734449, 0.019548, -0.013744, 0.000305, 0.080000, -0.032000, 0.992000, 8.885960, -2.972823, 48.696512, -0.007766, -0.089808, 0.382362

1497933744.747763, 0.016493, -0.011912, 0.000611, 0.080000, -0.032000, 0.992000, 8.923080, -2.935851, 48.691967, -0.008030, -0.089748, 0.380078

1497933744.761098, 0.014355, -0.014661, -0.000305, 0.080000, -0.016000, 0.976000, 8.952810, -2.906233, 48.688287, -0.008011, -0.089782, 0.380536

1497933744.774427, 0.019548, -0.016799, 0.003054, 0.080000, -0.032000, 0.976000, 8.972968, -2.815857, 48.689887, -0.008243, -0.089807, 0.377786

1497933744.787817, 0.020159, -0.014966, 0.002138, 0.080000, -0.032000, 0.976000, 8.989074, -2.743541, 48.691044, -0.008459, -0.089805, 0.374788

1497933744.801229, 0.019242, -0.011606, 0.002749, 0.080000, -0.032000, 0.960000, 9.001946, -2.685679, 48.691892, -0.008695, -0.089784, 0.371579

1497933744.814585, 0.020769, -0.013744, 0.000916, 0.080000, -0.032000, 0.960000, 8.952369, -2.728413, 48.698656, -0.008906, -0.089794, 0.368618

1497933744.827916, 0.020159, -0.016188, 0.003971, 0.080000, -0.016000, 0.960000, 8.912650, -2.762637, 48.704012, -0.008803, -0.089873, 0.368971

1497933744.841248, 0.023824, -0.017715, 0.004887, 0.096000, 0.000000, 0.976000, 8.952012, -2.828633, 48.693003, -0.008305, -0.090247, 0.373639

1497933744.854574, 0.018937, -0.014966, 0.001833, 0.096000, 0.000000, 0.976000, 8.983407, -2.881293, 48.684133, -0.007877, -0.090580, 0.378273

1497933744.867891, 0.021686, -0.014355, 0.002138, 0.096000, -0.016000, 0.976000, 9.008462, -2.923333, 48.676997, -0.007760, -0.090924, 0.380110

1497933744.881216, 0.019548, -0.016493, 0.001222, 0.080000, -0.032000, 0.960000, 8.961494, -2.912825, 48.686295, -0.008008, -0.090952, 0.377688

1497933744.894538, 0.019853, -0.018021, 0.000916, 0.080000, -0.032000, 0.960000, 8.923973, -2.904430, 48.693688, -0.008246, -0.091000, 0.375317

1497933744.907855, 0.019242, -0.014966, 0.002443, 0.080000, -0.016000, 0.976000, 8.927008, -2.937754, 48.691133, -0.008165, -0.091014, 0.376053

1497933744.921181, 0.017410, -0.016493, 0.001222, 0.080000, -0.016000, 0.976000, 8.929426, -2.964328, 48.689079, -0.008107, -0.091047, 0.376846

1497933744.934505, 0.021686, -0.016188, 0.003665, 0.064000, -0.016000, 0.976000, 8.931353, -2.985533, 48.687429, -0.007991, -0.090746, 0.376660

1497933744.947821, 0.018021, -0.014050, 0.002443, 0.096000, -0.032000, 0.960000, 8.942570, -2.947881, 48.687665, -0.008270, -0.091091, 0.375480

1497933744.961142, 0.018937, -0.016493, 0.000916, 0.096000, -0.032000, 0.960000, 8.951582, -2.917616, 48.687832, -0.008531, -0.091460, 0.374156

1497933744.974463, 0.022602, -0.015882, 0.004276, 0.080000, -0.032000, 0.976000, 8.945209, -2.954194, 48.686797, -0.008715, -0.091448, 0.372100

1497933744.987777, 0.021075, -0.016188, 0.004581, 0.096000, -0.016000, 0.944000, 8.940105, -2.983463, 48.685950, -0.008598, -0.091866, 0.374687

1497933745.001097, 0.020769, -0.012217, 0.003665, 0.096000, -0.016000, 0.944000, 8.936019, -3.006883, 48.685259, -0.008486, -0.092225, 0.377309

1497933745.014422, 0.019242, -0.015272, 0.003360, 0.080000, -0.032000, 0.992000, 9.042529, -3.004186, 48.665756, -0.008702, -0.092164, 0.375293

1497933745.027950, 0.023213, -0.016493, 0.004276, 0.080000, -0.032000, 0.992000, 9.127735, -3.002016, 48.649981, -0.008858, -0.092123, 0.373238

1497933745.041298, 0.017715, -0.017410, 0.002443, 0.064000, -0.032000, 0.992000, 9.141116, -3.047328, 48.644651, -0.009061, -0.091767, 0.370649

1497933745.054625, 0.023824, -0.015577, 0.003971, 0.080000, -0.016000, 0.960000, 9.151839, -3.083658, 48.640345, -0.008911, -0.091801, 0.371708

1497933745.067949, 0.018937, -0.016188, 0.005803, 0.080000, -0.016000, 0.960000, 9.160429, -3.112774, 48.636873, -0.008831, -0.091842, 0.372852

1497933745.081278, 0.020159, -0.011606, 0.002749, 0.096000, -0.016000, 0.976000, 9.109383, -3.051237, 48.650358, -0.008716, -0.092126, 0.375086

1497933745.094604, 0.017104, -0.015272, 0.002443, 0.096000, -0.032000, 0.960000, 9.068421, -3.001869, 48.661081, -0.008991, -0.092461, 0.373994

1497933745.107923, 0.026573, -0.019853, 0.003360, 0.096000, -0.032000, 0.960000, 9.013288, -2.998711, 48.671518, -0.009139, -0.092850, 0.373003

1497933745.121246, 0.023213, -0.019242, 0.001833, 0.080000, -0.032000, 0.960000, 9.011515, -2.995710, 48.672031, -0.009311, -0.092882, 0.370997

1497933745.134569, 0.018937, -0.018021, -0.002749, 0.080000, -0.032000, 0.960000, 9.010100, -2.993315, 48.672440, -0.009531, -0.092898, 0.368963

1497933745.147887, 0.020159, -0.017104, 0.003971, 0.064000, -0.016000, 0.992000, 8.966832, -2.991879, 48.680518, -0.009403, -0.092551, 0.368896

1497933745.161287, 0.021075, -0.017104, 0.002138, 0.080000, 0.000000, 0.992000, 8.932257, -2.990731, 48.686945, -0.008962, -0.092519, 0.372349

1497933745.174674, 0.019548, -0.017410, 0.003360, 0.080000, 0.000000, 0.992000, 8.904622, -2.989812, 48.692063, -0.008552, -0.092492, 0.375795

1497933745.188046, 0.021991, -0.014355, 0.003971, 0.080000, -0.016000, 0.976000, 8.860759, -3.054363, 48.696058, -0.008432, -0.092470, 0.377041

1497933745.201408, 0.024129, -0.015272, 0.003665, 0.016000, -0.032000, 0.992000, 8.825676, -3.105965, 48.699165, -0.008455, -0.091103, 0.373329

1497933745.214744, 0.020464, -0.017410, 0.000305, 0.064000, -0.032000, 0.992000, 8.798581, -3.060547, 48.706943, -0.008633, -0.090769, 0.371032

1497933745.228073, 0.016799, -0.014966, 0.000305, 0.080000, -0.016000, 0.960000, 8.776903, -3.024218, 48.713123, -0.008580, -0.090818, 0.372419

1497933745.241400, 0.019242, -0.016188, 0.001833, 0.080000, -0.016000, 0.960000, 8.759559, -2.995159, 48.718040, -0.008498, -0.090880, 0.373725

1497933745.254719, 0.016799, -0.017104, 0.003665, 0.112000, -0.032000, 1.008000, 8.749888, -2.973343, 48.721114, -0.008741, -0.091505, 0.374429

1497933745.268040, 0.019853, -0.016188, 0.002749, 0.080000, -0.016000, 0.992000, 8.742143, -2.955877, 48.723567, -0.008639, -0.091499, 0.375479

1497933745.281365, 0.017104, -0.015272, 0.002749, 0.080000, -0.016000, 0.992000, 8.740824, -2.878185, 48.728455, -0.008573, -0.091480, 0.376239

1497933745.294688, 0.019853, -0.014661, 0.001222, 0.080000, -0.032000, 0.976000, 8.739751, -2.815934, 48.732284, -0.008787, -0.091447, 0.373776

1497933745.308009, 0.025656, -0.016188, 0.005803, 0.080000, -0.032000, 0.976000, 8.738883, -2.766071, 48.735296, -0.008925, -0.091433, 0.371224

1497933745.321341, 0.019242, -0.020159, 0.002138, 0.080000, -0.016000, 1.008000, 8.737754, -2.769645, 48.735295, -0.008818, -0.091452, 0.371636

1497933745.334666, 0.019853, -0.018631, 0.003360, 0.064000, -0.032000, 0.976000, 8.736851, -2.772507, 48.735294, -0.009000, -0.091138, 0.368438

1497933745.347987, 0.017410, -0.017104, 0.001833, 0.064000, -0.032000, 0.976000, 8.761718, -2.747305, 48.732257, -0.009208, -0.090810, 0.365180

1497933745.361363, 0.017715, -0.014355, 0.002138, 0.080000, -0.032000, 0.976000, 8.781544, -2.727210, 48.729817, -0.009437, -0.090786, 0.362556

1497933745.374694, 0.023213, -0.015272, 0.002443, 0.080000, -0.032000, 0.960000, 8.797361, -2.711174, 48.727859, -0.009604, -0.090799, 0.359867

1497933745.388018, 0.022602, -0.018326, 0.001527, 0.080000, -0.032000, 0.960000, 8.724941, -2.792714, 48.736274, -0.009776, -0.090858, 0.357619

1497933745.401343, 0.019242, -0.014050, 0.002749, 0.096000, -0.016000, 1.008000, 8.666792, -2.858143, 48.742856, -0.009645, -0.091130, 0.360103

1497933745.414664, 0.022907, -0.016188, 0.003665, 0.096000, -0.016000, 1.008000, 8.713692, -2.861874, 48.734274, -0.009471, -0.091424, 0.362470

1497933745.427981, 0.019853, -0.018631, 0.005803, 0.096000, -0.016000, 0.976000, 8.751164, -2.864853, 48.727385, -0.009349, -0.091807, 0.364964

1497933745.441301, 0.015882, -0.018326, 0.004276, 0.080000, -0.032000, 0.992000, 8.781108, -2.867233, 48.721857, -0.009593, -0.091795, 0.362960

1497933745.454627, 0.017715, -0.014661, -0.002443, 0.080000, -0.032000, 0.992000, 8.775764, -2.844937, 48.724127, -0.009800, -0.091736, 0.360827

1497933745.467943, 0.014050, -0.014355, -0.001527, 0.096000, 0.000000, 1.008000, 8.771496, -2.827138, 48.725932, -0.009413, -0.091965, 0.365637

1497933745.481265, 0.017104, -0.016188, 0.000305, 0.096000, 0.000000, 1.008000, 8.826362, -2.882886, 48.712756, -0.008996, -0.092215, 0.370432

1497933745.494586, 0.017410, -0.016188, 0.001833, 0.096000, 0.000000, 1.008000, 8.870311, -2.927554, 48.702107, -0.008586, -0.092460, 0.375195

1497933745.507919, 0.017104, -0.016493, 0.003665, 0.080000, 0.000000, 0.992000, 8.905507, -2.963331, 48.693520, -0.008216, -0.092422, 0.378508

1497933745.521274, 0.021686, -0.014050, 0.002749, 0.080000, 0.000000, 0.992000, 8.904294, -2.967665, 48.693478, -0.007790, -0.092355, 0.381758

1497933745.534615, 0.018937, -0.012828, 0.001527, 0.048000, -0.032000, 0.976000, 8.903324, -2.971130, 48.693444, -0.007970, -0.091617, 0.378315

1497933745.547955, 0.020464, -0.016188, 0.000916, 0.080000, -0.032000, 0.976000, 8.885778, -2.975563, 48.696378, -0.008190, -0.091606, 0.376276

1497933745.561292, 0.018021, -0.016799, 0.001222, 0.080000, -0.032000, 0.976000, 8.871731, -2.979111, 48.698722, -0.008437, -0.091604, 0.374310

1497933745.574624, 0.023824, -0.014661, 0.002749, 0.080000, -0.016000, 0.976000, 8.860489, -2.981951, 48.700595, -0.008293, -0.091603, 0.375323

1497933745.587971, 0.019548, -0.014661, -0.000000, 0.064000, -0.032000, 0.992000, 8.918962, -2.984954, 48.689736, -0.008480, -0.091219, 0.372632

1497933745.601323, 0.022907, -0.014661, -0.000611, 0.064000, -0.032000, 0.992000, 8.965766, -2.987355, 48.680992, -0.008620, -0.090844, 0.369959

1497933745.614667, 0.025962, -0.018021, 0.005498, 0.064000, -0.016000, 0.976000, 8.906775, -2.920851, 48.695855, -0.008439, -0.090571, 0.369765

1497933745.628009, 0.023824, -0.020464, 0.004276, 0.064000, -0.016000, 0.976000, 8.859628, -2.867716, 48.707612, -0.008288, -0.090334, 0.369449

1497933745.641488, 0.015577, -0.012217, 0.001222, 0.096000, -0.016000, 0.960000, 8.821940, -2.825253, 48.716933, -0.008241, -0.090691, 0.371549

1497933745.654856, 0.014966, -0.011301, -0.000305, 0.080000, -0.032000, 0.976000, 8.884019, -2.836471, 48.704999, -0.008524, -0.090630, 0.369096

1497933745.668201, 0.014050, -0.012828, 0.000916, 0.080000, -0.032000, 0.976000, 8.933688, -2.845445, 48.695389, -0.008816, -0.090592, 0.366696

1497933745.681581, 0.017410, -0.017715, 0.003665, 0.080000, -0.016000, 0.976000, 8.936096, -2.811058, 48.696945, -0.008745, -0.090649, 0.367171

1497933745.694928, 0.025351, -0.018631, 0.002138, 0.080000, -0.016000, 0.976000, 8.938022, -2.783508, 48.698174, -0.008571, -0.090716, 0.367518

1497933745.708268, 0.025045, -0.018326, 0.001833, 0.080000, -0.016000, 0.976000, 8.939563, -2.761441, 48.699147, -0.008403, -0.090778, 0.367774

1497933745.721639, 0.020769, -0.016799, 0.002749, 0.064000, -0.080000, 0.960000, 8.889619, -2.784993, 48.706948, -0.009447, -0.090090, 0.356034

1497933745.734995, 0.016799, -0.016188, 0.002749, 0.064000, -0.080000, 0.960000, 8.849687, -2.803817, 48.713139, -0.010532, -0.089423, 0.344559

1497933745.748328, 0.018937, -0.017715, 0.001222, 0.064000, -0.032000, 0.992000, 8.817756, -2.818865, 48.718061, -0.010688, -0.089127, 0.342025

1497933745.761738, 0.021075, -0.018021, 0.000611, 0.096000, -0.016000, 0.960000, 8.792221, -2.830896, 48.721978, -0.010518, -0.089582, 0.344751

1497933745.775070, 0.019548, -0.012828, 0.000916, 0.096000, -0.016000, 0.960000, 8.771800, -2.840517, 48.725099, -0.010373, -0.089959, 0.347509

1497933745.788396, 0.017410, -0.013744, 0.007330, 0.064000, -0.032000, 0.992000, 8.822894, -2.848915, 48.715382, -0.010560, -0.089600, 0.345093

1497933745.801733, 0.020159, -0.016493, 0.004581, 0.064000, 0.000000, 1.008000, 8.863771, -2.855633, 48.707568, -0.010121, -0.089280, 0.347459

1497933745.815065, 0.019242, -0.018326, 0.004887, 0.064000, 0.000000, 1.008000, 8.896472, -2.861007, 48.701290, -0.009701, -0.088991, 0.349751

1497933745.828386, 0.018326, -0.016799, 0.002749, 0.080000, -0.016000, 0.976000, 8.880516, -2.865757, 48.703923, -0.009603, -0.089069, 0.350824

1497933745.841723, 0.018326, -0.015577, 0.000611, 0.080000, -0.016000, 0.976000, 8.867746, -2.869558, 48.706026, -0.009504, -0.089130, 0.351880

1497933745.855047, 0.022297, -0.015882, 0.004581, 0.064000, -0.032000, 0.992000, 8.878597, -2.872374, 48.703883, -0.009642, -0.088814, 0.349377

1497933745.868363, 0.019853, -0.012828, 0.001833, 0.080000, -0.032000, 0.976000, 8.887279, -2.874627, 48.702167, -0.009841, -0.088819, 0.347540

1497933745.881692, 0.020769, -0.016799, 0.001527, 0.080000, -0.032000, 0.976000, 8.894225, -2.876429, 48.700792, -0.010023, -0.088876, 0.345737

1497933745.895014, 0.018937, -0.014661, 0.000305, 0.096000, -0.016000, 0.976000, 8.899553, -2.899573, 48.698446, -0.009893, -0.089258, 0.348324

1497933745.908334, 0.021075, -0.015577, 0.002749, 0.064000, -0.016000, 0.992000, 8.903816, -2.918088, 48.696561, -0.009747, -0.088965, 0.348502

1497933745.921701, 0.021686, -0.015882, 0.002749, 0.064000, -0.016000, 0.992000, 8.949346, -2.932436, 48.687352, -0.009596, -0.088682, 0.348669

1497933745.935023, 0.019853, -0.011301, 0.001833, 0.080000, -0.016000, 0.992000, 8.985753, -2.943910, 48.679954, -0.009474, -0.088669, 0.349814

1497933745.948372, 0.018937, -0.016493, 0.002749, 0.080000, -0.016000, 0.992000, 9.014868, -2.953085, 48.674015, -0.009367, -0.088724, 0.350937

1497933745.961724, 0.017715, -0.015577, 0.002138, 0.080000, -0.032000, 0.992000, 9.013254, -2.915875, 48.676557, -0.009588, -0.088741, 0.349138

1497933745.975054, 0.017715, -0.010996, 0.002749, 0.080000, -0.032000, 0.960000, 9.011960, -2.886129, 48.678569, -0.009829, -0.088749, 0.347204

1497933745.988380, 0.016188, -0.012523, 0.002749, 0.080000, -0.032000, 0.960000, 8.960980, -2.845450, 48.690374, -0.010084, -0.088775, 0.345202

1497933746.001711, 0.017104, -0.015882, 0.001222, 0.064000, -0.048000, 0.944000, 8.920080, -2.812819, 48.699779, -0.010612, -0.088448, 0.339518

1497933746.015023, 0.022907, -0.015272, 0.003971, 0.096000, -0.032000, 0.976000, 8.887285, -2.786659, 48.707278, -0.010766, -0.088825, 0.338461

1497933746.028334, 0.015272, -0.017715, 0.001527, 0.096000, -0.032000, 0.976000, 8.911057, -2.804517, 48.701910, -0.011014, -0.089228, 0.337443

1497933746.041704, 0.018937, -0.018326, 0.004276, 0.080000, -0.032000, 0.992000, 8.930038, -2.818777, 48.697610, -0.011187, -0.089272, 0.335659

1497933746.055024, 0.021686, -0.014355, 0.003360, 0.080000, -0.032000, 0.992000, 8.953583, -2.854615, 48.691198, -0.011322, -0.089265, 0.334011

1497933746.068341, 0.023213, -0.018631, 0.004276, 0.080000, -0.016000, 0.960000, 8.972424, -2.883299, 48.686040, -0.011135, -0.089388, 0.335396

1497933746.081754, 0.025045, -0.018937, 0.005803, 0.064000, -0.016000, 0.992000, 8.987501, -2.906255, 48.681894, -0.010916, -0.089138, 0.335744

1497933746.096783, 0.021991, -0.012217, 0.002749, 0.064000, -0.016000, 0.992000, 8.995467, -2.901498, 48.680706, -0.010703, -0.088823, 0.336026

1497933746.110095, 0.017410, -0.016799, 0.003360, 0.096000, -0.016000, 0.976000, 9.001836, -2.897694, 48.679755, -0.010583, -0.089233, 0.338640

1497933746.123437, 0.015882, -0.014355, 0.001527, 0.096000, -0.032000, 0.976000, 8.947097, -2.983635, 48.684655, -0.010822, -0.089593, 0.338360

1497933746.136771, 0.018937, -0.012217, 0.001222, 0.096000, -0.032000, 0.976000, 8.903245, -3.052432, 48.688429, -0.011014, -0.089921, 0.338446

1497933746.150095, 0.019548, -0.011606, 0.004581, 0.080000, -0.016000, 0.960000, 8.868126, -3.107496, 48.691355, -0.010885, -0.089942, 0.340677

1497933746.163498, 0.019853, -0.013744, 0.001833, 0.080000, -0.016000, 0.960000, 8.837199, -3.019697, 48.702501, -0.010748, -0.089992, 0.342577

1497933746.176891, 0.022297, -0.010385, 0.001222, 0.080000, -0.048000, 0.960000, 8.812439, -2.949464, 48.711291, -0.011222, -0.089899, 0.337904

1497933746.190238, 0.021686, -0.014661, 0.002749, 0.080000, -0.016000, 1.008000, 8.792394, -2.915014, 48.716987, -0.011043, -0.089880, 0.339414

1497933746.203585, 0.021686, -0.014661, 0.003665, 0.080000, -0.016000, 1.008000, 8.776356, -2.887457, 48.721519, -0.010868, -0.089861, 0.340836

1497933746.216917, 0.016493, -0.013744, 0.001222, 0.080000, -0.032000, 0.992000, 8.763525, -2.865414, 48.725130, -0.011074, -0.089835, 0.339285

1497933746.230244, 0.019548, -0.014050, 0.002138, 0.080000, -0.016000, 0.944000, 8.774151, -2.869288, 48.722990, -0.010943, -0.089917, 0.340849

1497933746.243579, 0.018326, -0.017715, -0.000916, 0.080000, -0.016000, 0.944000, 8.782649, -2.872387, 48.721276, -0.010827, -0.090045, 0.342339

1497933746.256907, 0.019853, -0.015272, -0.000000, 0.080000, -0.032000, 0.976000, 8.835896, -2.875801, 48.711446, -0.010999, -0.090061, 0.340676

1497933746.270234, 0.021075, -0.015577, 0.004581, 0.080000, -0.032000, 0.976000, 8.878504, -2.878531, 48.703537, -0.011158, -0.090079, 0.339074

1497933746.283559, 0.022907, -0.017410, -0.000611, 0.080000, -0.016000, 1.008000, 8.912596, -2.880713, 48.697181, -0.010959, -0.090092, 0.340224

1497933746.296971, 0.022602, -0.017104, 0.000611, 0.064000, -0.016000, 1.008000, 8.914708, -2.859568, 48.698040, -0.010763, -0.089783, 0.340328

1497933746.310368, 0.022297, -0.018021, 0.001222, 0.064000, -0.016000, 1.008000, 8.916396, -2.842660, 48.698721, -0.010574, -0.089492, 0.340384

1497933746.323715, 0.016799, -0.016188, -0.000000, 0.080000, -0.016000, 0.960000, 8.862542, -2.847199, 48.708285, -0.010481, -0.089580, 0.341623

1497933746.337049, 0.019242, -0.013744, 0.001222, 0.096000, -0.032000, 0.976000, 8.819566, -2.850819, 48.715874, -0.010679, -0.089920, 0.340872

1497933746.350380, 0.018021, -0.014966, 0.006109, 0.096000, -0.032000, 0.976000, 8.785253, -2.853706, 48.721904, -0.010896, -0.090268, 0.340262

1497933746.363703, 0.024129, -0.014966, 0.000916, 0.064000, -0.048000, 0.976000, 8.782629, -2.900440, 48.719618, -0.011282, -0.089874, 0.335278

1497933746.377025, 0.023824, -0.014966, 0.003971, 0.064000, -0.048000, 0.976000, 8.780526, -2.937798, 48.717758, -0.011673, -0.089493, 0.330567

1497933746.390349, 0.018326, -0.012523, 0.004581, 0.112000, -0.016000, 0.960000, 8.804528, -2.925594, 48.714161, -0.011468, -0.090199, 0.335989

1497933746.403675, 0.017715, -0.011912, 0.004276, 0.080000, -0.032000, 0.992000, 8.823736, -2.915827, 48.711271, -0.011651, -0.090145, 0.334707

1497933746.417000, 0.021686, -0.015577, 0.003360, 0.080000, -0.032000, 0.992000, 8.839104, -2.908010, 48.708952, -0.011778, -0.090140, 0.333393

1497933746.430324, 0.018326, -0.017715, 0.006109, 0.080000, -0.016000, 0.976000, 8.889617, -2.856648, 48.702798, -0.011644, -0.090206, 0.334793

1497933746.443658, 0.021686, -0.017715, 0.005498, 0.080000, 0.000000, 0.992000, 8.929977, -2.815589, 48.697805, -0.011152, -0.090223, 0.338453

1497933746.456985, 0.019242, -0.014661, 0.001222, 0.080000, 0.000000, 0.992000, 8.970606, -2.807072, 48.690829, -0.010696, -0.090201, 0.341886

1497933746.470309, 0.023213, -0.016493, 0.001527, 0.064000, -0.016000, 0.976000, 9.003141, -2.800249, 48.685217, -0.010507, -0.089921, 0.341723

1497933746.483670, 0.023518, -0.016493, 0.001833, 0.064000, -0.016000, 0.976000, 9.029189, -2.794785, 48.680707, -0.010317, -0.089647, 0.341523

1497933746.497034, 0.017410, -0.014966, 0.003054, 0.064000, -0.016000, 1.008000, 8.944732, -2.813195, 48.695236, -0.010202, -0.089318, 0.341459

1497933746.510382, 0.018021, -0.016493, -0.000305, 0.080000, -0.016000, 0.976000, 8.877062, -2.827935, 48.706764, -0.010094, -0.089386, 0.342531

1497933746.523737, 0.020464, -0.010079, 0.002443, 0.080000, -0.016000, 0.976000, 8.822860, -2.839735, 48.715925, -0.009960, -0.089369, 0.343738

1497933746.537076, 0.022297, -0.014355, 0.002443, 0.080000, -0.032000, 0.960000, 8.779456, -2.849180, 48.723214, -0.010133, -0.089411, 0.341996

1497933746.550413, 0.021991, -0.017715, 0.003360, 0.080000, -0.032000, 0.976000, 8.744705, -2.856738, 48.729021, -0.010296, -0.089470, 0.340403

1497933746.563788, 0.021380, -0.015577, 0.004887, 0.080000, -0.032000, 0.976000, 8.817879, -2.881992, 48.714345, -0.010465, -0.089501, 0.338885

1497933746.577129, 0.017715, -0.013439, 0.004276, 0.080000, -0.016000, 0.976000, 8.876331, -2.902166, 48.702530, -0.010362, -0.089526, 0.340328

1497933746.590478, 0.024740, -0.017410, 0.005498, 0.080000, -0.016000, 0.976000, 8.923037, -2.918286, 48.693031, -0.010171, -0.089602, 0.341744

1497933746.603817, 0.020464, -0.015577, 0.003665, 0.096000, -0.032000, 0.992000, 8.964436, -2.954247, 48.683258, -0.010351, -0.089936, 0.341280

1497933746.617158, 0.018021, -0.015577, 0.000916, 0.080000, -0.016000, 0.992000, 8.997552, -2.983019, 48.675393, -0.010239, -0.089955, 0.342674

1497933746.630515, 0.016493, -0.016799, -0.000916, 0.080000, -0.016000, 0.992000, 8.987016, -2.942902, 48.679782, -0.010146, -0.089988, 0.343898

1497933746.644070, 0.021380, -0.016188, 0.001833, 0.096000, -0.016000, 0.992000, 8.978570, -2.910763, 48.683272, -0.009976, -0.090340, 0.346331

1497933746.657489, 0.020464, -0.019242, 0.002443, 0.080000, -0.032000, 0.976000, 8.971803, -2.885021, 48.686052, -0.010158, -0.090400, 0.344521

1497933746.670845, 0.020769, -0.019853, 0.000916, 0.080000, -0.032000, 0.976000, 8.991093, -2.930756, 48.679761, -0.010333, -0.090468, 0.342880

1497933746.684196, 0.019242, -0.017104, 0.000305, 0.080000, -0.016000, 0.976000, 9.006538, -2.967389, 48.674687, -0.010208, -0.090522, 0.344221

1497933746.697561, 0.020769, -0.019853, 0.001222, 0.080000, -0.016000, 0.976000, 9.007058, -2.883790, 48.679615, -0.010066, -0.090610, 0.345263

1497933746.710959, 0.019853, -0.015882, 0.004887, 0.080000, -0.016000, 1.008000, 9.007456, -2.817006, 48.683452, -0.009932, -0.090592, 0.346015

1497933746.724344, 0.017104, -0.019242, 0.000916, 0.080000, -0.016000, 0.944000, 9.007761, -2.763642, 48.686454, -0.009851, -0.090725, 0.346697

1497933746.737673, 0.022907, -0.017104, 0.002443, 0.080000, -0.016000, 0.944000, 8.981537, -2.828327, 48.687584, -0.009700, -0.090828, 0.347652

1497933746.751008, 0.021075, -0.014966, 0.001833, 0.080000, -0.016000, 0.976000, 8.960582, -2.879982, 48.688417, -0.009565, -0.090846, 0.348687

1497933746.764365, 0.022297, -0.016188, -0.000000, 0.080000, -0.032000, 0.992000, 8.910586, -2.902841, 48.696234, -0.009718, -0.090830, 0.346957

1497933746.777707, 0.024129, -0.015272, 0.002138, 0.080000, -0.032000, 0.992000, 8.870544, -2.921143, 48.702450, -0.009848, -0.090804, 0.345400

1497933746.791075, 0.021991, -0.015577, 0.001527, 0.064000, -0.032000, 0.944000, 8.838480, -2.935793, 48.707398, -0.010015, -0.090517, 0.343088

1497933746.804462, 0.020769, -0.013744, 0.002443, 0.064000, -0.032000, 0.944000, 8.829866, -2.924192, 48.709658, -0.010197, -0.090213, 0.340800

1497933746.817820, 0.018326, -0.019242, 0.002749, 0.064000, -0.016000, 1.008000, 8.822977, -2.914915, 48.711463, -0.010079, -0.089929, 0.341193

1497933746.831181, 0.026878, -0.018937, 0.002443, 0.048000, -0.016000, 0.976000, 8.851954, -2.846346, 48.710261, -0.009843, -0.089359, 0.340556

1497933746.844563, 0.023213, -0.014355, 0.000611, 0.048000, -0.016000, 0.976000, 8.875173, -2.791359, 48.709218, -0.009654, -0.088740, 0.339731

1497933746.857917, 0.023824, -0.016493, 0.003665, 0.064000, -0.032000, 0.992000, 8.893773, -2.747287, 48.708331, -0.009765, -0.088438, 0.337031

1497933746.871264, 0.021075, -0.016493, 0.004581, 0.096000, -0.016000, 0.944000, 8.912166, -2.749990, 48.704816, -0.009623, -0.088920, 0.339446

1497933746.884610, 0.019242, -0.013439, 0.003360, 0.096000, -0.016000, 0.944000, 8.926843, -2.752146, 48.702006, -0.009508, -0.089351, 0.341775

1497933746.897969, 0.020159, -0.012523, 0.002443, 0.080000, -0.016000, 0.992000, 8.989026, -2.777773, 48.689112, -0.009383, -0.089340, 0.342498

1497933746.911376, 0.022297, -0.014050, 0.005192, 0.080000, -0.016000, 0.992000, 9.038750, -2.798267, 48.678732, -0.009234, -0.089348, 0.343245

1497933746.924740, 0.017410, -0.012828, 0.001527, 0.096000, -0.032000, 0.992000, 9.078514, -2.814657, 48.670387, -0.009472, -0.089643, 0.341979

1497933746.938085, 0.018631, -0.015272, 0.003971, 0.064000, 0.000000, 0.976000, 9.064146, -2.805180, 48.673612, -0.009069, -0.089350, 0.344122

1497933746.951428, 0.014355, -0.015272, 0.003665, 0.064000, 0.000000, 0.976000, 9.052657, -2.797604, 48.676186, -0.008729, -0.089063, 0.346214

1497933746.964763, 0.021686, -0.015272, 0.003665, 0.064000, -0.016000, 0.992000, 9.014199, -2.817724, 48.682162, -0.008595, -0.088769, 0.346018

1497933746.978089, 0.019242, -0.014966, 0.004276, 0.064000, -0.016000, 0.992000, 8.983352, -2.833856, 48.686927, -0.008498, -0.088476, 0.345917

1497933746.991415, 0.016493, -0.014966, 0.003054, 0.064000, -0.016000, 0.992000, 8.958624, -2.846787, 48.690729, -0.008437, -0.088190, 0.345868

1497933747.004741, 0.016799, -0.015272, 0.003054, 0.080000, -0.032000, 0.960000, 8.942678, -2.851422, 48.693389, -0.008714, -0.088263, 0.343937

1497933747.018046, 0.019853, -0.014966, 0.004887, 0.080000, -0.032000, 0.960000, 8.929951, -2.855121, 48.695508, -0.008948, -0.088331, 0.342095

1497933747.031372, 0.021686, -0.013439, 0.002443, 0.096000, -0.016000, 0.944000, 8.965927, -2.880676, 48.687392, -0.008810, -0.088777, 0.344796

1497933747.044708, 0.018631, -0.016799, 0.003360, 0.096000, -0.016000, 0.976000, 8.994675, -2.901098, 48.680876, -0.008712, -0.089190, 0.347261

1497933747.058036, 0.020464, -0.012217, 0.003971, 0.096000, -0.016000, 0.976000, 9.017651, -2.917422, 48.675650, -0.008592, -0.089535, 0.349701

1497933747.071369, 0.019242, -0.012217, 0.002443, 0.128000, -0.016000, 0.992000, 8.981611, -2.933988, 48.681317, -0.008369, -0.090488, 0.356265

1497933747.084697, 0.015882, -0.013134, -0.000916, 0.064000, -0.016000, 0.944000, 8.952727, -2.947261, 48.685836, -0.008333, -0.090204, 0.356331

1497933747.098018, 0.015882, -0.012828, 0.002749, 0.064000, -0.016000, 0.944000, 8.945881, -2.999625, 48.683896, -0.008304, -0.089922, 0.356615

1497933747.111344, 0.018326, -0.012828, 0.003054, 0.080000, -0.016000, 0.992000, 8.940397, -3.041513, 48.682304, -0.008231, -0.089905, 0.358010

1497933747.124668, 0.017104, -0.018021, 0.003054, 0.080000, -0.016000, 0.992000, 8.936006, -3.075019, 48.681006, -0.008176, -0.089957, 0.359495

1497933747.137987, 0.019548, -0.015272, 0.002443, 0.096000, -0.016000, 0.976000, 8.946358, -3.019420, 48.682585, -0.008078, -0.090328, 0.362196

1497933747.151347, 0.024435, -0.018631, 0.003360, 0.080000, -0.032000, 0.992000, 8.954656, -2.974814, 48.683805, -0.008237, -0.090353, 0.360465

1497933747.164727, 0.020159, -0.013439, 0.003971, 0.080000, -0.032000, 0.992000, 8.901611, -2.955588, 48.694703, -0.008449, -0.090309, 0.358759

1497933747.178109, 0.023518, -0.015577, 0.004581, 0.064000, -0.032000, 0.976000, 8.859228, -2.940227, 48.703361, -0.008601, -0.089986, 0.356315

1497933747.191592, 0.020464, -0.014050, 0.003360, 0.064000, -0.032000, 0.976000, 8.825355, -2.927951, 48.710250, -0.008788, -0.089652, 0.353889

1497933747.204980, 0.017410, -0.014050, 0.001833, 0.064000, -0.032000, 0.976000, 8.844466, -2.940797, 48.706010, -0.009013, -0.089324, 0.351520

1497933747.218315, 0.020159, -0.013744, 0.001527, 0.080000, -0.032000, 1.008000, 8.859751, -2.951071, 48.702610, -0.009198, -0.089283, 0.350015

1497933747.231653, 0.015577, -0.015272, 0.002443, 0.080000, -0.032000, 1.008000, 8.871976, -2.959289, 48.699886, -0.009441, -0.089264, 0.348570

1497933747.244991, 0.019853, -0.014966, 0.000916, 0.080000, -0.016000, 0.944000, 8.851692, -3.006608, 48.700679, -0.009337, -0.089371, 0.350295

1497933747.258323, 0.021075, -0.014661, 0.001222, 0.096000, -0.016000, 0.976000, 8.835487, -3.044394, 48.701274, -0.009191, -0.089747, 0.353489

1497933747.271757, 0.017410, -0.015577, 0.000611, 0.096000, -0.016000, 0.976000, 8.856796, -3.035415, 48.697964, -0.009094, -0.090128, 0.356533

1497933747.285084, 0.021075, -0.020769, 0.000916, 0.064000, -0.032000, 0.976000, 8.873866, -3.028222, 48.695304, -0.009267, -0.089880, 0.354368

1497933747.298397, 0.019242, -0.016799, 0.003054, 0.080000, 0.000000, 0.976000, 8.887536, -3.022460, 48.693169, -0.008851, -0.089920, 0.358414

1497933747.311728, 0.019242, -0.013439, 0.000916, 0.080000, 0.000000, 0.976000, 8.882607, -2.932625, 48.699561, -0.008439, -0.089918, 0.362092

1497933747.325064, 0.019242, -0.012523, 0.002443, 0.064000, -0.016000, 0.960000, 8.878635, -2.860611, 48.704569, -0.008353, -0.089613, 0.361880

1497933747.338395, 0.018937, -0.011301, 0.003360, 0.064000, -0.016000, 0.960000, 8.866883, -2.800206, 48.710220, -0.008271, -0.089298, 0.361507

1497933747.351730, 0.018326, -0.012217, 0.004581, 0.080000, -0.016000, 0.992000, 8.857477, -2.751904, 48.714684, -0.008196, -0.089282, 0.361955

1497933747.365058, 0.019548, -0.018631, 0.001833, 0.080000, 0.000000, 0.976000, 8.849949, -2.713276, 48.718218, -0.007790, -0.089364, 0.364960

1497933747.378381, 0.019548, -0.016799, 0.000611, 0.080000, 0.000000, 0.976000, 8.851814, -2.750258, 48.715806, -0.007392, -0.089421, 0.368002

1497933747.391713, 0.020464, -0.017104, -0.001222, 0.080000, 0.000000, 0.992000, 8.853305, -2.779883, 48.713853, -0.006989, -0.089455, 0.370933

1497933747.405043, 0.025351, -0.013439, 0.005192, 0.080000, -0.016000, 0.976000, 8.833347, -2.803827, 48.716104, -0.006854, -0.089479, 0.371466

1497933747.418369, 0.025962, -0.013744, 0.003054, 0.080000, -0.016000, 0.976000, 8.817363, -2.823001, 48.717892, -0.006711, -0.089507, 0.372053

1497933747.431702, 0.021380, -0.014661, 0.003360, 0.064000, -0.032000, 0.976000, 8.804564, -2.838352, 48.719315, -0.006920, -0.089178, 0.369023

1497933747.445026, 0.018326, -0.015272, 0.000916, 0.064000, -0.032000, 0.976000, 8.781360, -2.868284, 48.721750, -0.007165, -0.088867, 0.366142

1497933747.458346, 0.019548, -0.013439, 0.001833, 0.080000, -0.016000, 0.976000, 8.762832, -2.892177, 48.723673, -0.007100, -0.088905, 0.367146

1497933747.471936, 0.020769, -0.013744, 0.002138, 0.080000, -0.032000, 0.992000, 8.832929, -2.866898, 48.712509, -0.007319, -0.088891, 0.365016

1497933747.485333, 0.023824, -0.013134, 0.001527, 0.080000, -0.032000, 0.992000, 8.888887, -2.846708, 48.703513, -0.007497, -0.088867, 0.362789

1497933747.498668, 0.016493, -0.014355, 0.002138, 0.080000, -0.032000, 0.976000, 8.933579, -2.830576, 48.696276, -0.007781, -0.088883, 0.360473

1497933747.512002, 0.017715, -0.015272, -0.000611, 0.112000, -0.016000, 0.976000, 8.935563, -2.842552, 48.695214, -0.007673, -0.089604, 0.364283

1497933747.525349, 0.025045, -0.015272, 0.003665, 0.112000, -0.016000, 0.976000, 8.937151, -2.852142, 48.694362, -0.007478, -0.090312, 0.368110

1497933747.538715, 0.017715, -0.017104, 0.003665, 0.096000, -0.016000, 0.992000, 8.984904, -2.860743, 48.685069, -0.007418, -0.090666, 0.369880

1497933747.552076, 0.021380, -0.013744, 0.003360, 0.096000, -0.016000, 0.992000, 9.023146, -2.867631, 48.677590, -0.007312, -0.090968, 0.371566

1497933747.565433, 0.018021, -0.014355, 0.001222, 0.096000, -0.016000, 0.976000, 9.053765, -2.873145, 48.671579, -0.007254, -0.091305, 0.373249

1497933747.578783, 0.025045, -0.016493, 0.003665, 0.064000, -0.032000, 0.976000, 9.010621, -2.876865, 48.679365, -0.007400, -0.090965, 0.370179

1497933747.592138, 0.019242, -0.014661, 0.002749, 0.064000, -0.032000, 0.976000, 8.976095, -2.879840, 48.685568, -0.007621, -0.090609, 0.367193

1497933747.605496, 0.019242, -0.014355, 0.005498, 0.080000, -0.032000, 0.992000, 9.020941, -2.840756, 48.679575, -0.007855, -0.090563, 0.364827

1497933747.618839, 0.018631, -0.013744, 0.004276, 0.064000, -0.016000, 0.992000, 9.056864, -2.809437, 48.674722, -0.007774, -0.090217, 0.364197

1497933747.632206, 0.019853, -0.017410, 0.004887, 0.064000, -0.016000, 0.992000, 9.085630, -2.784350, 48.670802, -0.007677, -0.089925, 0.363482

1497933747.645560, 0.019242, -0.015272, 0.002443, 0.080000, -0.032000, 0.992000, 9.073918, -2.804058, 48.671856, -0.007907, -0.089904, 0.360968

1497933747.658904, 0.015577, -0.014966, 0.000916, 0.080000, -0.032000, 0.992000, 9.064562, -2.819795, 48.672690, -0.008179, -0.089882, 0.358549

1497933747.672260, 0.017715, -0.018326, 0.002749, 0.096000, -0.016000, 0.976000, 9.010558, -2.831457, 48.682039, -0.008108, -0.090292, 0.360434

1497933747.685602, 0.015882, -0.016799, 0.001222, 0.080000, -0.032000, 0.944000, 8.967419, -2.840768, 48.689462, -0.008410, -0.090365, 0.358083

1497933747.698932, 0.021075, -0.014966, 0.000305, 0.080000, -0.032000, 0.944000, 8.932951, -2.848204, 48.695363, -0.008637, -0.090415, 0.355829

1497933747.712258, 0.018937, -0.009163, 0.004276, 0.080000, -0.016000, 0.944000, 8.956139, -2.856442, 48.690621, -0.008564, -0.090420, 0.356761

1497933747.725577, 0.015272, -0.015272, 0.003971, 0.112000, -0.016000, 0.960000, 8.974699, -2.863035, 48.686816, -0.008480, -0.091148, 0.360882

1497933747.738974, 0.012217, -0.017410, -0.000611, 0.112000, -0.016000, 0.960000, 8.976129, -2.907573, 48.683913, -0.008431, -0.091892, 0.365051

1497933747.752332, 0.012828, -0.016188, -0.001222, 0.080000, -0.016000, 1.008000, 8.977266, -2.943120, 48.681567, -0.008415, -0.091852, 0.365790

1497933747.765688, 0.017410, -0.016493, 0.001833, 0.080000, -0.016000, 1.008000, 8.978171, -2.971502, 48.679676, -0.008344, -0.091818, 0.366648

1497933747.779024, 0.015272, -0.013439, 0.000305, 0.080000, -0.016000, 0.976000, 9.054639, -3.019433, 48.662561, -0.008311, -0.091797, 0.367616

1497933747.792458, 0.017104, -0.012523, -0.000000, 0.080000, -0.032000, 0.992000, 9.115847, -3.057805, 48.648735, -0.008554, -0.091714, 0.365869

1497933747.805859, 0.019242, -0.015577, 0.001222, 0.080000, -0.032000, 0.992000, 9.030263, -3.065382, 48.664217, -0.008768, -0.091674, 0.364289

1497933747.819206, 0.020159, -0.021686, 0.000916, 0.080000, 0.000000, 0.976000, 8.961792, -3.071435, 48.676492, -0.008350, -0.091744, 0.368116

1497933747.832553, 0.021686, -0.010996, 0.003360, 0.048000, -0.016000, 0.976000, 8.907012, -3.076272, 48.686240, -0.008218, -0.091033, 0.367540

1497933747.845882, 0.022602, -0.011912, 0.005192, 0.048000, -0.016000, 0.976000, 8.804747, -3.038987, 48.707179, -0.008080, -0.090348, 0.366995

1497933747.859205, 0.016188, -0.016493, 0.002749, 0.064000, -0.016000, 0.976000, 8.722800, -3.009110, 48.723775, -0.008042, -0.090067, 0.367320

1497933747.872537, 0.024129, -0.018021, 0.003054, 0.064000, -0.016000, 0.976000, 8.655991, -3.093672, 48.730394, -0.007906, -0.089812, 0.367993

1497933747.885861, 0.022907, -0.014050, 0.002749, 0.080000, 0.000000, 0.960000, 8.712223, -3.161659, 48.716007, -0.007468, -0.089846, 0.372641

1497933747.899178, 0.018326, -0.014661, 0.001833, 0.064000, -0.016000, 0.976000, 8.757214, -3.216074, 48.704377, -0.007419, -0.089553, 0.373433

1497933747.912510, 0.017410, -0.015577, 0.000305, 0.064000, -0.016000, 0.976000, 8.760696, -3.146783, 48.708277, -0.007378, -0.089277, 0.373974

1497933747.925832, 0.021686, -0.018326, 0.003054, 0.080000, -0.016000, 0.960000, 8.763464, -3.091446, 48.711322, -0.007289, -0.089401, 0.375594

1497933747.939149, 0.020769, -0.017715, 0.002443, 0.064000, -0.032000, 0.960000, 8.765667, -3.047238, 48.713712, -0.007514, -0.089143, 0.373179

1497933747.952478, 0.019853, -0.016493, 0.000611, 0.064000, -0.032000, 0.960000, 8.779355, -3.081283, 48.709105, -0.007746, -0.088878, 0.370893

1497933747.965803, 0.018631, -0.016799, 0.003665, 0.080000, -0.016000, 0.992000, 8.790318, -3.108558, 48.705394, -0.007681, -0.088935, 0.372468

1497933747.979120, 0.020769, -0.017715, 0.000916, 0.080000, -0.016000, 0.992000, 8.825158, -3.066542, 48.701757, -0.007586, -0.089002, 0.373780

1497933747.992448, 0.019548, -0.016188, 0.002443, 0.080000, -0.016000, 0.976000, 8.853073, -3.032863, 48.698800, -0.007514, -0.089074, 0.374985

1497933748.005774, 0.020464, -0.015272, 0.003665, 0.080000, -0.032000, 0.976000, 8.875433, -3.005879, 48.696403, -0.007749, -0.089103, 0.373174

1497933748.019076, 0.020769, -0.015882, 0.004276, 0.080000, -0.032000, 0.976000, 8.846805, -2.983297, 48.703000, -0.007977, -0.089139, 0.371352

1497933748.032676, 0.020464, -0.011912, 0.001833, 0.080000, -0.032000, 0.960000, 8.823891, -2.965223, 48.708261, -0.008207, -0.089153, 0.369460

1497933748.046012, 0.027184, -0.017410, 0.001527, 0.080000, -0.032000, 1.008000, 8.869184, -2.928309, 48.702267, -0.008314, -0.089158, 0.367502

1497933748.059340, 0.022907, -0.016799, 0.002138, 0.080000, -0.032000, 1.008000, 8.905405, -2.898779, 48.697424, -0.008475, -0.089153, 0.365444

1497933748.072674, 0.020769, -0.015272, 0.002749, 0.080000, -0.032000, 0.992000, 8.934372, -2.875156, 48.693518, -0.008673, -0.089152, 0.363287

1497933748.085998, 0.022297, -0.015882, -0.000000, 0.080000, -0.032000, 0.992000, 8.966183, -2.859015, 48.688621, -0.008843, -0.089159, 0.361047

1497933748.099316, 0.023518, -0.017715, 0.001222, 0.080000, -0.016000, 0.992000, 8.991671, -2.846079, 48.684679, -0.008686, -0.089218, 0.361598

1497933748.112644, 0.021991, -0.017410, 0.003054, 0.080000, -0.016000, 0.976000, 8.995506, -2.815493, 48.685749, -0.008558, -0.089298, 0.362098

1497933748.125973, 0.021686, -0.017715, 0.000611, 0.080000, -0.016000, 0.976000, 8.998578, -2.790972, 48.686593, -0.008434, -0.089380, 0.362467

1497933748.139313, 0.025351, -0.015882, 0.003971, 0.080000, -0.032000, 0.960000, 9.001039, -2.771321, 48.687261, -0.008596, -0.089429, 0.359853

1497933748.152675, 0.021075, -0.014050, 0.001222, 0.080000, -0.032000, 0.976000, 8.959864, -2.770961, 48.694875, -0.008795, -0.089429, 0.357332

1497933748.166296, 0.018326, -0.016493, 0.001833, 0.096000, -0.032000, 0.976000, 8.927025, -2.770673, 48.700923, -0.009038, -0.089801, 0.355768

1497933748.179745, 0.018326, -0.013439, 0.001527, 0.080000, -0.016000, 0.976000, 8.887824, -2.816913, 48.705440, -0.008949, -0.089821, 0.356523

1497933748.193103, 0.022907, -0.012523, 0.003665, 0.080000, -0.016000, 0.976000, 8.856460, -2.853893, 48.709000, -0.008806, -0.089826, 0.357467

1497933748.206436, 0.023213, -0.014355, 0.004887, 0.064000, -0.032000, 0.992000, 8.831367, -2.883470, 48.711814, -0.008944, -0.089475, 0.354929

1497933748.219767, 0.023213, -0.020159, 0.002138, 0.064000, -0.016000, 0.976000, 8.811519, -2.885349, 48.715297, -0.008793, -0.089259, 0.354992

1497933748.233149, 0.023213, -0.021075, 0.003054, 0.064000, -0.016000, 0.976000, 8.795642, -2.886852, 48.718077, -0.008645, -0.089059, 0.355090

1497933748.246507, 0.021991, -0.016493, 0.000916, 0.096000, -0.016000, 0.976000, 8.879869, -2.905885, 48.701663, -0.008503, -0.089464, 0.357562

1497933748.259920, 0.021991, -0.016188, 0.004276, 0.080000, -0.032000, 0.960000, 8.947061, -2.921066, 48.688456, -0.008709, -0.089525, 0.355679

1497933748.273261, 0.014966, -0.016188, 0.002443, 0.080000, -0.032000, 0.960000, 9.000693, -2.933182, 48.677841, -0.009002, -0.089585, 0.353800

1497933748.286588, 0.014966, -0.014355, 0.001222, 0.064000, -0.032000, 0.976000, 8.994070, -2.882642, 48.682084, -0.009251, -0.089258, 0.351118

1497933748.299916, 0.018021, -0.016799, 0.001527, 0.064000, -0.032000, 0.976000, 8.988756, -2.842132, 48.685448, -0.009455, -0.088970, 0.348364

1497933748.313256, 0.018937, -0.016188, 0.002443, 0.080000, -0.032000, 0.992000, 8.949990, -2.849300, 48.692170, -0.009658, -0.088988, 0.346433

1497933748.326585, 0.017104, -0.012828, 0.001833, 0.064000, -0.016000, 0.976000, 8.919015, -2.855025, 48.697518, -0.009571, -0.088685, 0.346444

1497933748.339908, 0.017104, -0.014661, 0.000611, 0.064000, -0.016000, 0.976000, 8.894259, -2.859600, 48.701777, -0.009485, -0.088412, 0.346481

1497933748.353242, 0.017410, -0.014355, 0.002443, 0.128000, 0.000000, 0.976000, 8.883012, -2.866012, 48.703453, -0.008865, -0.089376, 0.356740

1497933748.366569, 0.016799, -0.015577, 0.003360, 0.128000, -0.064000, 0.976000, 8.874004, -2.871147, 48.704793, -0.009953, -0.090109, 0.347054

1497933748.379893, 0.015577, -0.012217, 0.002138, 0.096000, -0.016000, 0.976000, 8.833143, -2.849628, 48.713483, -0.009871, -0.090435, 0.349578

1497933748.393228, 0.019242, -0.015882, 0.002443, 0.096000, -0.048000, 0.976000, 8.800507, -2.832441, 48.720392, -0.010422, -0.090699, 0.344797

1497933748.406554, 0.018631, -0.011912, 0.000916, 0.096000, -0.048000, 0.976000, 8.774430, -2.818710, 48.725892, -0.010967, -0.090907, 0.340036

1497933748.419873, 0.023518, -0.015272, 0.003971, 0.080000, 0.000000, 0.960000, 8.803920, -2.831683, 48.719820, -0.010462, -0.090930, 0.344084

1497933748.433203, 0.018631, -0.016188, 0.006414, 0.080000, -0.016000, 0.976000, 8.827521, -2.842067, 48.714944, -0.010350, -0.090961, 0.345314

1497933748.446530, 0.017715, -0.014355, 0.001222, 0.080000, -0.016000, 0.976000, 8.841708, -2.892365, 48.709411, -0.010247, -0.090969, 0.346607

1497933748.459852, 0.019548, -0.014966, -0.000000, 0.080000, -0.016000, 0.976000, 8.853044, -2.932575, 48.704947, -0.010121, -0.090985, 0.347980

1497933748.473183, 0.019853, -0.014355, 0.000916, 0.080000, -0.016000, 0.976000, 8.862103, -2.964726, 48.701353, -0.009995, -0.090993, 0.349435

1497933748.486512, 0.019548, -0.012217, 0.002749, 0.096000, -0.016000, 0.944000, 8.793850, -2.972559, 48.713246, -0.009866, -0.091370, 0.352728

1497933748.499829, 0.016493, -0.011301, 0.002443, 0.064000, -0.016000, 0.960000, 8.739126, -2.978834, 48.722710, -0.009795, -0.091022, 0.353244

1497933748.513157, 0.018021, -0.015272, 0.002749, 0.064000, -0.016000, 0.960000, 8.694804, -3.027298, 48.727652, -0.009709, -0.090735, 0.353963

1497933748.526534, 0.019548, -0.017104, 0.004276, 0.080000, 0.000000, 0.992000, 8.735309, -3.069839, 48.717745, -0.009287, -0.090734, 0.358340

1497933748.539892, 0.013439, -0.014661, 0.001833, 0.096000, -0.032000, 0.976000, 8.767806, -3.103976, 48.709744, -0.009582, -0.091072, 0.358478

1497933748.553242, 0.015882, -0.012828, 0.002443, 0.096000, -0.032000, 0.976000, 8.777612, -3.060012, 48.710760, -0.009842, -0.091377, 0.358411

1497933748.566583, 0.018631, -0.014966, 0.004581, 0.080000, -0.032000, 0.960000, 8.785440, -3.024885, 48.711543, -0.010067, -0.091390, 0.357091

1497933748.579922, 0.021991, -0.020159, 0.005192, 0.080000, -0.032000, 0.960000, 8.791693, -2.996812, 48.712150, -0.010245, -0.091470, 0.355689

1497933748.593263, 0.022297, -0.020769, 0.002443, 0.080000, -0.016000, 0.976000, 8.808617, -3.036425, 48.706639, -0.010088, -0.091553, 0.357340

1497933748.606605, 0.018021, -0.013744, 0.002138, 0.080000, -0.016000, 0.992000, 8.822115, -3.068028, 48.702215, -0.009985, -0.091515, 0.358980

1497933748.619954, 0.023824, -0.014355, 0.004581, 0.080000, -0.016000, 0.992000, 8.854417, -3.049685, 48.697505, -0.009810, -0.091486, 0.360508

1497933748.633308, 0.022297, -0.016493, 0.003360, 0.096000, -0.016000, 0.976000, 8.880209, -3.035035, 48.693724, -0.009645, -0.091842, 0.363397

1497933748.646665, 0.019548, -0.013744, 0.004581, 0.080000, -0.016000, 0.960000, 8.900811, -3.023331, 48.690690, -0.009541, -0.091852, 0.364790

1497933748.659999, 0.018937, -0.016188, 0.003971, 0.080000, -0.016000, 0.960000, 8.908364, -3.083524, 48.685534, -0.009447, -0.091894, 0.366340

1497933748.673354, 0.019548, -0.011301, 0.006109, 0.064000, -0.016000, 0.992000, 8.914407, -3.131757, 48.681349, -0.009338, -0.091493, 0.366834

1497933748.686697, 0.024129, -0.011912, 0.007330, 0.064000, -0.016000, 0.992000, 8.953730, -3.080218, 48.677420, -0.009170, -0.091107, 0.367134

1497933748.700029, 0.022907, -0.016799, 0.004887, 0.064000, -0.016000, 0.992000, 8.985155, -3.039014, 48.674220, -0.009017, -0.090793, 0.367236

1497933748.713358, 0.022602, -0.015272, 0.003360, 0.080000, -0.016000, 0.976000, 9.010271, -3.006067, 48.671622, -0.008877, -0.090815, 0.368253

1497933748.726881, 0.018326, -0.014661, 0.004276, 0.080000, -0.016000, 0.976000, 9.001057, -3.006173, 48.673321, -0.008795, -0.090832, 0.369277

1497933748.740514, 0.021686, -0.013744, 0.002443, 0.096000, -0.016000, 0.976000, 8.993668, -3.006258, 48.674682, -0.008652, -0.091168, 0.371640

1497933748.754027, 0.024129, -0.016493, 0.007636, 0.080000, -0.016000, 0.960000, 9.004248, -3.026352, 48.671480, -0.008506, -0.091229, 0.372759

1497933748.767420, 0.014050, -0.017410, 0.004581, 0.080000, -0.016000, 0.960000, 9.012716, -3.042435, 48.668910, -0.008495, -0.091299, 0.373856

1497933748.780792, 0.016188, -0.014661, 0.004276, 0.064000, -0.016000, 0.960000, 9.019491, -3.055306, 48.666849, -0.008451, -0.090996, 0.373869

1497933748.794169, 0.022602, -0.018326, -0.073304, 0.064000, -0.016000, 0.960000, 8.979158, -2.999471, 48.677779, -0.008229, -0.090755, 0.372738

1497933748.807566, 0.020769, -0.014355, 0.002443, 0.080000, -0.016000, 0.992000, 8.946883, -2.954807, 48.686453, -0.008122, -0.090740, 0.373503

1497933748.821050, 0.017104, -0.015272, 0.000305, 0.064000, 0.000000, 0.944000, 8.996798, -2.966090, 48.676567, -0.007758, -0.090473, 0.375659

1497933748.834510, 0.021991, -0.014355, 0.003971, 0.064000, 0.000000, 0.944000, 9.036802, -2.975132, 48.668605, -0.007341, -0.090199, 0.377786

1497933748.847976, 0.018021, -0.015882, 0.002138, 0.080000, -0.016000, 0.992000, 9.068850, -2.982375, 48.662199, -0.007285, -0.090216, 0.378362

1497933748.861510, 0.018021, -0.016799, 0.001833, 0.080000, 0.000000, 0.976000, 9.048605, -2.921866, 48.669638, -0.006915, -0.090260, 0.381325

1497933748.874967, 0.018326, -0.013134, 0.001833, 0.080000, 0.000000, 0.976000, 9.032389, -2.873427, 48.675534, -0.006549, -0.090255, 0.384112

1497933748.888428, 0.021380, -0.015272, 0.000611, 0.080000, -0.032000, 0.976000, 9.090073, -2.894926, 48.663521, -0.006780, -0.090252, 0.381446

1497933748.901894, 0.020159, -0.016799, 0.000916, 0.080000, -0.016000, 0.960000, 9.136073, -2.912071, 48.653882, -0.006714, -0.090332, 0.381700

1497933748.915345, 0.021380, -0.014355, 0.001222, 0.080000, -0.016000, 0.960000, 9.172779, -2.925753, 48.646155, -0.006634, -0.090379, 0.381948

1497933748.928782, 0.021380, -0.014050, 0.006720, 0.064000, 0.000000, 0.976000, 9.105746, -2.940690, 48.657846, -0.006247, -0.090060, 0.383644

1497933748.942225, 0.023213, -0.016188, 0.006414, 0.064000, 0.000000, 0.976000, 9.052055, -2.952647, 48.667139, -0.005845, -0.089777, 0.385408

1497933748.955679, 0.025351, -0.018021, 0.005803, 0.080000, -0.016000, 1.008000, 9.004490, -2.982511, 48.674142, -0.005720, -0.089805, 0.385924

1497933748.969142, 0.019853, -0.015272, 0.002749, 0.096000, -0.016000, 0.976000, 8.966441, -3.006391, 48.679696, -0.005667, -0.090181, 0.388011

1497933748.982613, 0.024740, -0.014966, 0.002138, 0.096000, -0.016000, 0.976000, 8.936005, -3.025489, 48.684109, -0.005549, -0.090547, 0.390182

1497933748.996110, 0.025045, -0.017104, 0.001833, 0.064000, -0.016000, 0.976000, 8.895333, -2.999025, 48.693194, -0.005432, -0.090269, 0.389789

1497933749.009586, 0.020464, -0.012523, 0.003971, 0.080000, -0.048000, 0.960000, 8.862758, -2.977831, 48.700434, -0.006032, -0.090170, 0.384305

1497933749.023060, 0.022297, -0.013439, 0.003971, 0.080000, -0.048000, 0.960000, 8.874158, -3.002423, 48.696848, -0.006597, -0.090090, 0.379027

1497933749.036516, 0.022602, -0.016493, 0.003360, 0.080000, -0.016000, 0.944000, 8.883269, -3.022083, 48.693971, -0.006513, -0.090202, 0.380177

1497933749.049974, 0.019548, -0.016799, 0.002138, 0.080000, -0.016000, 0.944000, 8.890554, -3.037802, 48.691663, -0.006470, -0.090315, 0.381331

1497933749.063443, 0.020159, -0.016493, 0.006109, 0.080000, -0.016000, 0.960000, 8.837369, -3.052560, 48.700422, -0.006420, -0.090395, 0.382588

1497933749.076898, 0.018021, -0.014966, 0.002138, 0.080000, -0.016000, 0.976000, 8.794772, -3.064375, 48.707390, -0.006389, -0.090426, 0.383814

1497933749.090368, 0.017104, -0.017104, 0.003360, 0.080000, -0.016000, 0.976000, 8.820502, -3.006460, 48.706347, -0.006372, -0.090483, 0.384792

1497933749.103830, 0.019548, -0.016493, 0.000305, 0.080000, -0.016000, 0.976000, 8.841066, -2.960149, 48.705455, -0.006318, -0.090530, 0.385518

1497933749.117283, 0.022297, -0.015577, 0.003054, 0.080000, -0.016000, 0.976000, 8.857503, -2.923114, 48.704705, -0.006232, -0.090563, 0.386113

1497933749.130743, 0.019242, -0.013439, 0.000611, 0.080000, -0.016000, 0.976000, 8.900298, -2.896054, 48.698520, -0.006184, -0.090566, 0.386506

1497933749.144201, 0.021075, -0.009468, 0.000305, 0.080000, 0.000000, 0.992000, 8.934572, -2.874376, 48.693528, -0.005796, -0.090481, 0.389231

1497933749.157650, 0.015577, -0.018326, 0.001527, 0.080000, 0.000000, 0.992000, 8.881282, -2.873916, 48.703303, -0.005491, -0.090515, 0.392011

1497933749.171225, 0.017410, -0.017715, 0.002138, 0.080000, 0.000000, 0.960000, 8.838736, -2.873547, 48.711064, -0.005164, -0.090596, 0.395058

1497933749.184798, 0.021075, -0.015882, 0.001527, 0.096000, -0.032000, 0.992000, 8.804757, -2.873251, 48.717235, -0.005431, -0.090901, 0.393370

1497933749.198279, 0.021380, -0.016188, 0.005803, 0.096000, -0.032000, 0.992000, 8.836916, -2.856383, 48.712403, -0.005697, -0.091201, 0.391652

1497933749.211897, 0.026267, -0.015577, 0.005192, 0.080000, -0.016000, 0.976000, 8.862695, -2.842860, 48.708511, -0.005567, -0.091221, 0.391866

1497933749.225377, 0.024435, -0.012828, 0.000305, 0.080000, -0.032000, 0.992000, 8.883350, -2.832023, 48.705380, -0.005763, -0.091137, 0.389035

1497933749.238834, 0.016493, -0.011912, -0.000000, 0.080000, -0.032000, 0.992000, 8.899894, -2.823341, 48.702863, -0.006059, -0.091044, 0.386207

1497933749.252302, 0.021075, -0.014661, 0.003360, 0.064000, -0.016000, 0.976000, 8.913143, -2.816388, 48.700843, -0.005980, -0.090721, 0.385329

1497933749.265758, 0.020769, -0.014050, 0.005803, 0.096000, -0.048000, 0.944000, 8.863901, -2.849334, 48.707913, -0.006633, -0.090986, 0.379607

1497933749.279208, 0.022907, -0.018021, 0.000611, 0.096000, -0.048000, 0.944000, 8.824600, -2.875619, 48.713504, -0.007237, -0.091307, 0.374085

1497933749.292775, 0.019242, -0.016493, 0.003054, 0.080000, -0.032000, 0.960000, 8.814865, -2.860087, 48.716181, -0.007496, -0.091332, 0.371751

1497933749.306371, 0.015272, -0.013439, 0.002749, 0.080000, -0.032000, 0.960000, 8.807053, -2.847627, 48.718324, -0.007803, -0.091316, 0.369419

1497933749.319849, 0.017410, -0.014661, 0.002138, 0.096000, 0.000000, 0.960000, 8.800791, -2.837637, 48.720039, -0.007399, -0.091656, 0.374617

1497933749.333335, 0.021075, -0.013134, -0.000611, 0.080000, -0.016000, 0.976000, 8.799494, -2.867490, 48.718525, -0.007303, -0.091635, 0.375276

1497933749.346806, 0.018631, -0.014050, 0.001222, 0.080000, -0.016000, 0.976000, 8.798456, -2.891317, 48.717304, -0.007245, -0.091627, 0.376031

1497933749.360276, 0.017104, -0.014661, 0.002138, 0.080000, -0.032000, 0.960000, 8.890811, -2.890492, 48.700583, -0.007532, -0.091619, 0.373689

1497933749.373735, 0.019853, -0.017104, 0.000611, 0.080000, 0.000000, 1.008000, 8.964654, -2.889825, 48.687084, -0.007139, -0.091587, 0.376562

1497933749.387192, 0.021075, -0.016493, 0.003971, 0.080000, 0.000000, 1.008000, 9.023702, -2.889287, 48.676207, -0.006740, -0.091547, 0.379320

1497933749.400655, 0.020159, -0.015577, 0.001222, 0.064000, -0.032000, 0.976000, 9.006977, -2.954769, 48.675373, -0.006957, -0.091193, 0.376355

1497933749.414118, 0.020769, -0.016493, 0.000611, 0.064000, -0.032000, 0.976000, 8.993582, -3.007158, 48.674642, -0.007165, -0.090862, 0.373623

1497933749.427573, 0.019548, -0.012523, 0.003360, 0.080000, -0.016000, 0.976000, 8.911915, -2.959970, 48.692552, -0.007100, -0.090849, 0.374504

1497933749.441037, 0.017715, -0.013744, 0.003054, 0.080000, -0.016000, 0.976000, 8.846623, -2.922250, 48.706734, -0.007059, -0.090852, 0.375333

1497933749.454500, 0.019853, -0.013744, 0.002138, 0.080000, -0.016000, 0.976000, 8.794417, -2.892094, 48.717987, -0.006990, -0.090855, 0.376109

1497933749.467954, 0.018631, -0.014355, 0.003054, 0.048000, -0.016000, 0.992000, 8.844602, -2.956721, 48.705021, -0.006909, -0.090189, 0.375097

1497933749.481441, 0.018021, -0.011912, 0.000916, 0.096000, -0.032000, 0.976000, 8.884750, -3.008440, 48.694546, -0.007192, -0.090492, 0.374280

1497933749.494945, 0.017104, -0.014966, 0.001222, 0.096000, -0.032000, 0.976000, 8.875632, -2.963410, 48.698969, -0.007483, -0.090827, 0.373299

1497933749.508432, 0.022602, -0.017104, 0.002443, 0.064000, -0.032000, 0.976000, 8.868325, -2.927357, 48.702481, -0.007657, -0.090511, 0.370486

1497933749.521926, 0.023518, -0.018631, 0.004581, 0.096000, -0.016000, 0.944000, 8.862472, -2.898496, 48.705273, -0.007524, -0.090984, 0.372937

1497933749.535397, 0.020159, -0.015882, 0.001222, 0.096000, -0.016000, 0.944000, 8.869897, -2.915852, 48.702885, -0.007436, -0.091412, 0.375348

1497933749.548868, 0.018631, -0.018021, 0.003054, 0.080000, -0.016000, 0.976000, 8.875826, -2.929714, 48.700973, -0.007377, -0.091460, 0.376142

1497933749.562391, 0.019242, -0.015882, 0.004581, 0.080000, -0.016000, 0.976000, 8.898138, -2.902979, 48.698502, -0.007311, -0.091479, 0.376814

1497933749.575885, 0.017715, -0.013439, 0.001527, 0.064000, 0.000000, 0.976000, 8.916029, -2.881535, 48.696503, -0.006956, -0.091131, 0.378646

1497933749.589359, 0.021686, -0.015272, 0.002138, 0.064000, -0.016000, 0.944000, 8.930369, -2.864344, 48.694890, -0.006865, -0.090860, 0.378072

1497933749.602814, 0.014661, -0.014966, -0.002138, 0.064000, -0.016000, 0.944000, 8.912313, -2.826258, 48.700423, -0.006863, -0.090591, 0.377353

1497933749.616274, 0.013439, -0.014966, -0.000916, 0.080000, -0.016000, 0.992000, 8.897867, -2.795795, 48.704823, -0.006871, -0.090587, 0.377508

1497933749.629805, 0.022602, -0.012523, 0.000611, 0.080000, 0.000000, 0.992000, 8.953591, -2.815683, 48.693464, -0.006448, -0.090542, 0.380207

1497933749.643309, 0.020159, -0.016493, 0.003054, 0.080000, 0.000000, 0.992000, 8.998171, -2.831594, 48.684323, -0.006070, -0.090551, 0.382857

1497933749.656785, 0.026878, -0.019242, 0.004581, 0.080000, -0.016000, 0.960000, 9.033833, -2.844323, 48.676976, -0.005933, -0.090657, 0.383046

1497933749.670257, 0.024129, -0.016493, 0.003665, 0.080000, -0.016000, 0.960000, 8.998739, -2.876987, 48.681556, -0.005834, -0.090725, 0.383381

1497933749.683733, 0.018021, -0.018021, 0.002749, 0.080000, 0.000000, 0.928000, 8.970644, -2.903129, 48.685189, -0.005491, -0.090860, 0.386713

1497933749.697277, 0.017715, -0.017715, 0.004276, 0.064000, -0.032000, 0.992000, 8.927229, -2.902480, 48.693207, -0.005754, -0.090524, 0.383574

1497933749.710826, 0.018631, -0.015882, 0.001833, 0.064000, -0.032000, 0.992000, 8.892475, -2.901959, 48.699597, -0.005998, -0.090173, 0.380490

1497933749.724311, 0.024129, -0.015577, 0.001833, 0.080000, -0.016000, 0.960000, 8.864657, -2.901541, 48.704694, -0.005897, -0.090241, 0.381138

1497933749.737777, 0.022297, -0.014966, 0.000916, 0.080000, -0.016000, 0.976000, 8.867402, -2.946023, 48.701524, -0.005817, -0.090273, 0.381857

1497933749.751245, 0.021075, -0.012217, 0.000916, 0.080000, -0.016000, 0.976000, 8.869595, -2.981638, 48.698957, -0.005755, -0.090268, 0.382679

1497933749.764770, 0.024740, -0.015577, 0.004887, 0.080000, 0.000000, 0.960000, 8.922695, -2.939681, 48.691807, -0.005330, -0.090323, 0.385994

1497933749.778251, 0.021075, -0.014661, 0.004581, 0.080000, -0.032000, 0.992000, 8.965065, -2.906189, 48.686034, -0.005582, -0.090286, 0.383537

1497933749.791727, 0.020159, -0.014966, 0.002138, 0.096000, -0.032000, 0.992000, 8.998890, -2.879443, 48.681383, -0.005857, -0.090583, 0.381849

1497933749.805186, 0.018021, -0.011912, 0.002443, 0.080000, -0.032000, 0.976000, 8.967157, -2.838373, 48.689650, -0.006148, -0.090528, 0.379155

1497933749.818643, 0.024740, -0.013744, 0.001222, 0.080000, -0.032000, 0.976000, 8.941760, -2.805510, 48.696225, -0.006343, -0.090497, 0.376397

1497933749.832105, 0.019853, -0.016799, -0.001222, 0.080000, -0.032000, 0.976000, 8.866371, -2.804356, 48.710074, -0.006596, -0.090509, 0.373729

1497933749.845549, 0.021075, -0.014050, 0.004581, 0.080000, -0.032000, 0.976000, 8.805910, -2.803426, 48.721094, -0.006836, -0.090486, 0.371245

1497933749.858991, 0.021991, -0.014661, 0.002138, 0.080000, -0.032000, 0.976000, 8.757447, -2.802677, 48.729872, -0.007056, -0.090472, 0.368823

1497933749.872503, 0.022907, -0.014661, 0.002443, 0.080000, -0.016000, 0.976000, 8.773133, -2.864171, 48.723474, -0.006946, -0.090496, 0.369667

1497933749.885951, 0.021686, -0.014661, 0.001833, 0.080000, -0.016000, 0.960000, 8.785657, -2.913306, 48.718304, -0.006861, -0.090547, 0.370698

1497933749.899394, 0.018631, -0.015577, 0.003360, 0.080000, -0.016000, 0.960000, 8.800143, -2.932197, 48.714556, -0.006820, -0.090609, 0.371772

1497933749.912846, 0.021075, -0.016799, 0.000916, 0.064000, -0.032000, 0.992000, 8.811732, -2.947312, 48.711549, -0.007017, -0.090273, 0.369125

1497933749.926290, 0.020159, -0.012523, 0.001833, 0.064000, -0.032000, 0.992000, 8.821002, -2.959405, 48.709138, -0.007225, -0.089889, 0.366576

1497933749.939734, 0.024129, -0.016799, 0.002443, 0.080000, -0.032000, 0.976000, 8.896249, -2.969814, 48.694817, -0.007413, -0.089924, 0.364759

1497933749.953188, 0.020464, -0.013744, 0.002443, 0.064000, -0.032000, 0.976000, 8.956462, -2.978140, 48.683270, -0.007622, -0.089583, 0.362217

1497933749.966630, 0.017410, -0.014050, 0.002443, 0.064000, -0.032000, 0.976000, 8.983708, -2.963216, 48.679160, -0.007868, -0.089254, 0.359655

1497933749.980069, 0.018937, -0.020464, 0.005192, 0.080000, -0.016000, 0.976000, 9.005513, -2.951270, 48.675857, -0.007799, -0.089377, 0.360672

1497933749.993520, 0.017715, -0.016799, 0.001527, 0.080000, -0.048000, 0.960000, 9.022963, -2.941708, 48.673204, -0.008390, -0.089365, 0.355526

1497933750.006963, 0.018021, -0.018021, 0.002443, 0.080000, -0.048000, 0.960000, 8.982214, -2.864835, 48.685325, -0.008965, -0.089367, 0.350200

1497933750.020416, 0.020769, -0.012828, 0.003054, 0.080000, -0.016000, 0.976000, 8.949657, -2.803448, 48.694893, -0.008846, -0.089387, 0.350951

1497933750.034675, 0.021075, -0.014966, 0.004581, 0.080000, -0.016000, 0.976000, 8.944993, -2.732404, 48.699788, -0.008710, -0.089445, 0.351469

1497933750.048183, 0.018021, -0.015577, 0.004276, 0.048000, -0.016000, 0.976000, 8.941255, -2.675641, 48.703626, -0.008602, -0.088839, 0.350091

1497933750.061647, 0.015577, -0.014355, 0.003054, 0.064000, -0.016000, 0.976000, 8.938258, -2.630276, 48.706647, -0.008547, -0.088558, 0.349320

1497933750.075086, 0.018937, -0.014050, 0.000611, 0.064000, -0.016000, 0.976000, 8.880038, -2.706056, 48.713145, -0.008449, -0.088279, 0.348833

1497933750.088540, 0.020464, -0.016188, 0.003054, 0.080000, -0.016000, 0.992000, 8.833378, -2.766749, 48.718218, -0.008340, -0.088339, 0.349602

1497933750.102015, 0.020464, -0.014050, 0.003665, 0.064000, -0.048000, 0.976000, 8.855435, -2.791545, 48.712799, -0.008822, -0.087956, 0.344062

1497933750.115468, 0.015882, -0.016188, 0.003360, 0.064000, -0.048000, 0.976000, 8.873071, -2.811371, 48.708450, -0.009359, -0.087613, 0.338695

1497933750.128921, 0.017104, -0.016493, 0.003971, 0.080000, -0.016000, 0.960000, 8.887172, -2.827226, 48.704961, -0.009287, -0.087745, 0.339913

1497933750.142388, 0.018937, -0.015272, 0.005498, 0.048000, -0.032000, 0.992000, 8.860227, -2.863509, 48.707751, -0.009447, -0.087126, 0.337121

1497933750.155839, 0.023213, -0.018326, 0.004276, 0.048000, -0.032000, 0.992000, 8.838646, -2.892559, 48.709955, -0.009550, -0.086561, 0.334468

