Using settings file RTIMULib_peter.ini
IMU Name: L3GD20 + LSM303DLHC
IMU Init Succeeded
Recommended Poll Interval: 10mS

Time, gyroX, gyroY, gyroZ, accelX, accelY, accelZ, magX, magY, magZ, phi, theta, psi

1497926230.900170, 0.028711, -0.022907, 0.001833, 0.032000, 0.016000, 0.976000, 2.775338, 3.244274, 49.405672, 0.016392, -0.032771, -1.128222

1497926230.913896, 0.021075, -0.015882, 0.003054, 0.032000, 0.000000, 0.976000, 2.720639, 3.094884, 49.418297, 0.016347, -0.032969, -1.130207

1497926230.927691, 0.023518, -0.014661, 0.002138, 0.032000, 0.000000, 0.976000, 2.702768, 3.046086, 49.422309, 0.016338, -0.033147, -1.132168

1497926230.941128, 0.027794, -0.019242, 0.003971, 0.032000, 0.000000, 0.976000, 2.694061, 3.022314, 49.424244, 0.016376, -0.033378, -1.134069

1497926230.954787, 0.032681, -0.019242, 0.003971, -0.000000, 0.016000, 0.976000, 2.690431, 3.035064, 49.423661, 0.016666, -0.032981, -1.125153

1497926230.968231, 0.029016, -0.019548, 0.002138, -0.000000, 0.016000, 0.976000, 2.688106, 3.043229, 49.423285, 0.016902, -0.032592, -1.116484

1497926230.981965, 0.029322, -0.018021, 0.001833, 0.016000, 0.000000, 0.976000, 2.728705, 3.090949, 49.418099, 0.016941, -0.032528, -1.114438

1497926230.995704, 0.026267, -0.021380, 0.007330, -0.000000, 0.000000, 0.992000, 2.757499, 3.124793, 49.414372, 0.016869, -0.032216, -1.109003

1497926231.009179, 0.027794, -0.017104, 0.003054, -0.000000, 0.000000, 0.992000, 2.778524, 3.149506, 49.411625, 0.016816, -0.031846, -1.103737

1497926231.022945, 0.023824, -0.017715, 0.001833, -0.000000, 0.000000, 0.992000, 2.794206, 3.167938, 49.409562, 0.016722, -0.031495, -1.098594

1497926231.036370, 0.029016, -0.017715, 0.002443, -0.000000, 0.000000, 0.992000, 2.806088, 3.181904, 49.407991, 0.016692, -0.031144, -1.093548

1497926231.049940, 0.030849, -0.019853, 0.004276, 0.048000, 0.000000, 0.976000, 2.763692, 3.159468, 49.411821, 0.016706, -0.031702, -1.100940

1497926231.063493, 0.028711, -0.019242, 0.003360, 0.016000, 0.000000, 1.008000, 2.730831, 3.142076, 49.414757, 0.016738, -0.031656, -1.099203

1497926231.077242, 0.027489, -0.021075, 0.006414, 0.016000, 0.000000, 1.008000, 2.705188, 3.128504, 49.417028, 0.016759, -0.031639, -1.097538

1497926231.091145, 0.026267, -0.018631, 0.001833, 0.016000, 0.000000, 1.040000, 2.701339, 3.133941, 49.416894, 0.016768, -0.031582, -1.095890

1497926231.104596, 0.024129, -0.016493, 0.002749, 0.016000, 0.016000, 0.976000, 2.698309, 3.138221, 49.416788, 0.017046, -0.031499, -1.091729

1497926231.118193, 0.024740, -0.016188, 0.004581, 0.016000, 0.016000, 0.976000, 2.696897, 3.159953, 49.415480, 0.017332, -0.031416, -1.087724

1497926231.131634, 0.023518, -0.020464, 0.001222, 0.016000, 0.016000, 0.976000, 2.695778, 3.177169, 49.414438, 0.017594, -0.031389, -1.083923

1497926231.145366, 0.020769, -0.017104, 0.001222, 0.032000, 0.016000, 0.976000, 2.694890, 3.190836, 49.413605, 0.017848, -0.031646, -1.085179

1497926231.159111, 0.021075, -0.020159, 0.000305, 0.032000, 0.016000, 0.976000, 2.639167, 3.213934, 49.415116, 0.018102, -0.031938, -1.086885

1497926231.172745, 0.025656, -0.021380, 0.002138, 0.016000, 0.016000, 0.976000, 2.594923, 3.232269, 49.416263, 0.018387, -0.031917, -1.083842

1497926231.186590, 0.023518, -0.020159, -0.001222, 0.016000, 0.016000, 0.976000, 2.647941, 3.268335, 49.411078, 0.018643, -0.031884, -1.080765

1497926231.200042, 0.027794, -0.021991, 0.001527, 0.032000, 0.016000, 0.960000, 2.690253, 3.297117, 49.406880, 0.018968, -0.032201, -1.082581

1497926231.213555, 0.025351, -0.019242, 0.003971, 0.016000, 0.000000, 0.976000, 2.724039, 3.320098, 49.403490, 0.018918, -0.032147, -1.081836

1497926231.226981, 0.025962, -0.019853, 0.003971, 0.016000, 0.000000, 0.976000, 2.698685, 3.285723, 49.407180, 0.018874, -0.032100, -1.081132

1497926231.240731, 0.026573, -0.018326, 0.000916, -0.000000, 0.016000, 0.960000, 2.678448, 3.258286, 49.410098, 0.019079, -0.031720, -1.074252

1497926231.254555, 0.027489, -0.020464, 0.004581, 0.032000, 0.016000, 0.960000, 2.662228, 3.253145, 49.411313, 0.019400, -0.032028, -1.076223

1497926231.268114, 0.021991, -0.020159, 0.004581, 0.032000, 0.016000, 0.960000, 2.649272, 3.249039, 49.412280, 0.019635, -0.032319, -1.078234

1497926231.281930, 0.024740, -0.016188, 0.000916, 0.016000, 0.016000, 0.976000, 2.638919, 3.245758, 49.413049, 0.019881, -0.032226, -1.075199

1497926231.295364, 0.020769, -0.018631, 0.000305, 0.016000, 0.016000, 0.976000, 2.633680, 3.230044, 49.414358, 0.020061, -0.032161, -1.072198

1497926231.309006, 0.026878, -0.019242, 0.003360, 0.016000, 0.016000, 0.976000, 2.629483, 3.217456, 49.415403, 0.020323, -0.032110, -1.069189

1497926231.322511, 0.025962, -0.019853, 0.002749, 0.016000, 0.016000, 0.992000, 2.641805, 3.239652, 49.413296, 0.020558, -0.032061, -1.066255

1497926231.336150, 0.025351, -0.021075, 0.001222, 0.016000, 0.016000, 0.992000, 2.651663, 3.257409, 49.411600, 0.020786, -0.032031, -1.063418

1497926231.349972, 0.025656, -0.020159, -0.000305, 0.048000, 0.000000, 0.944000, 2.659548, 3.271615, 49.410238, 0.020641, -0.032577, -1.072679

1497926231.363433, 0.024740, -0.020159, 0.000611, 0.016000, 0.016000, 0.976000, 2.666983, 3.250663, 49.411220, 0.020858, -0.032527, -1.069632

1497926231.377142, 0.022297, -0.017410, 0.003665, 0.016000, 0.016000, 0.976000, 2.672935, 3.233888, 49.411999, 0.021042, -0.032447, -1.066507

1497926231.390583, 0.025045, -0.019548, 0.004887, 0.016000, 0.000000, 0.960000, 2.676569, 3.252810, 49.410560, 0.020948, -0.032393, -1.066176

1497926231.404310, 0.025351, -0.022297, 0.003665, -0.000000, 0.016000, 0.992000, 2.679475, 3.267943, 49.409404, 0.021089, -0.032068, -1.059702

1497926231.417966, 0.027489, -0.020464, -0.000000, -0.000000, 0.016000, 0.992000, 2.681799, 3.280047, 49.408476, 0.021259, -0.031721, -1.053448

1497926231.431688, 0.022297, -0.017410, 0.002443, 0.016000, 0.000000, 0.976000, 2.716342, 3.254825, 49.408257, 0.021131, -0.031652, -1.053168

1497926231.445488, 0.024740, -0.018631, 0.003665, 0.032000, 0.000000, 0.944000, 2.743953, 3.234662, 49.408056, 0.021039, -0.031908, -1.057096

1497926231.458950, 0.026878, -0.019548, 0.002138, 0.032000, 0.000000, 0.944000, 2.751266, 3.237805, 49.407443, 0.020970, -0.032165, -1.060931

1497926231.472564, 0.029016, -0.018631, 0.005498, 0.016000, 0.016000, 0.976000, 2.757121, 3.240322, 49.406952, 0.021238, -0.032109, -1.057553

1497926231.486005, 0.026267, -0.018631, 0.002138, 0.016000, 0.016000, 0.976000, 2.761808, 3.242337, 49.406558, 0.021461, -0.032049, -1.054272

1497926231.499790, 0.028405, -0.020159, 0.000916, 0.016000, 0.016000, 0.928000, 2.712313, 3.173367, 49.413777, 0.021736, -0.032033, -1.051087

1497926231.513517, 0.024740, -0.020159, 0.002749, 0.016000, 0.000000, 0.992000, 2.672764, 3.118259, 49.419440, 0.021630, -0.031992, -1.050617

1497926231.526992, 0.025351, -0.019853, 0.003971, 0.016000, 0.000000, 0.992000, 2.692138, 3.175789, 49.414725, 0.021528, -0.031942, -1.050211

1497926231.540754, 0.024435, -0.019242, 0.005803, 0.016000, 0.000000, 1.008000, 2.707626, 3.221785, 49.410901, 0.021422, -0.031885, -1.049784

1497926231.554209, 0.026267, -0.016799, 0.001527, 0.016000, 0.016000, 0.992000, 2.720250, 3.191557, 49.412169, 0.021637, -0.031801, -1.046657

1497926231.567914, 0.026573, -0.019242, 0.000916, 0.016000, 0.016000, 0.992000, 2.662273, 3.166418, 49.416944, 0.021862, -0.031755, -1.043796

1497926231.581549, 0.022297, -0.015882, 0.004276, 0.032000, 0.016000, 0.992000, 2.615921, 3.146317, 49.420703, 0.022043, -0.031971, -1.046091

1497926231.595272, 0.023824, -0.020464, 0.000916, 0.016000, 0.016000, 0.992000, 2.632920, 3.185089, 49.417317, 0.022224, -0.031938, -1.043472

1497926231.609085, 0.024435, -0.020464, 0.000916, 0.016000, 0.016000, 0.992000, 2.646545, 3.216170, 49.414576, 0.022413, -0.031907, -1.040959

1497926231.622547, 0.026573, -0.021991, 0.003665, 0.016000, 0.016000, 0.976000, 2.641946, 3.158375, 49.418550, 0.022622, -0.031897, -1.038266

1497926231.636105, 0.024740, -0.018631, 0.006109, 0.016000, 0.016000, 0.976000, 2.638255, 3.112033, 49.421687, 0.022802, -0.031846, -1.035419

1497926231.649624, 0.022602, -0.017104, 0.006109, -0.000000, 0.000000, 0.976000, 2.635296, 3.074891, 49.424169, 0.022590, -0.031478, -1.031871

1497926231.663388, 0.026573, -0.021075, 0.005498, 0.016000, 0.016000, 0.976000, 2.630651, 3.126974, 49.421149, 0.022803, -0.031470, -1.029264

1497926231.677072, 0.030543, -0.018631, 0.003971, 0.016000, 0.016000, 0.976000, 2.626934, 3.168622, 49.418694, 0.023066, -0.031428, -1.026921

1497926231.690554, 0.022602, -0.019242, 0.003665, 0.016000, 0.016000, 0.976000, 2.654615, 3.198180, 49.415311, 0.023213, -0.031390, -1.024605

1497926231.704308, 0.024435, -0.016799, 0.001833, 0.016000, 0.016000, 0.976000, 2.676706, 3.221768, 49.412587, 0.023388, -0.031326, -1.022337

1497926231.717742, 0.024740, -0.020769, 0.004276, 0.016000, 0.016000, 0.976000, 2.694344, 3.240603, 49.410396, 0.023556, -0.031310, -1.020069

1497926231.731429, 0.025351, -0.020159, 0.001833, 0.048000, 0.000000, 0.992000, 2.660186, 3.241516, 49.412187, 0.023356, -0.031806, -1.029411

1497926231.744994, 0.024740, -0.018937, -0.000305, 0.032000, 0.000000, 0.976000, 2.632852, 3.242246, 49.413603, 0.023219, -0.032022, -1.034197

1497926231.758844, 0.023213, -0.015272, 0.003360, 0.032000, 0.000000, 0.976000, 2.643501, 3.258253, 49.411982, 0.023069, -0.032191, -1.038804

1497926231.772751, 0.026878, -0.016493, 0.001222, 0.032000, 0.000000, 0.976000, 2.652015, 3.271050, 49.410680, 0.022974, -0.032376, -1.043323

1497926231.786197, 0.026267, -0.020159, 0.004276, 0.032000, 0.000000, 0.976000, 2.658823, 3.281283, 49.409636, 0.022861, -0.032600, -1.047693

1497926231.799721, 0.026878, -0.020464, 0.001222, 0.016000, 0.016000, 0.992000, 2.647376, 3.323025, 49.407461, 0.023064, -0.032550, -1.045503

1497926231.813149, 0.028100, -0.016188, 0.001222, 0.016000, 0.032000, 0.992000, 2.638221, 3.356405, 49.405694, 0.023570, -0.032413, -1.039854

1497926231.826812, 0.026267, -0.016493, 0.003971, 0.016000, 0.032000, 0.992000, 2.664428, 3.382978, 49.402475, 0.024048, -0.032288, -1.034290

1497926231.840562, 0.029322, -0.020159, 0.005498, 0.016000, 0.000000, 0.992000, 2.685387, 3.404229, 49.399880, 0.023965, -0.032231, -1.034820

1497926231.854116, 0.026573, -0.018937, 0.001833, 0.016000, 0.000000, 0.976000, 2.702149, 3.421224, 49.397792, 0.023843, -0.032159, -1.035414

1497926231.867998, 0.022297, -0.017410, 0.002749, 0.016000, 0.000000, 0.976000, 2.749260, 3.384487, 49.397723, 0.023671, -0.032078, -1.035680

1497926231.881443, 0.020159, -0.018631, 0.001527, 0.016000, 0.000000, 0.976000, 2.786942, 3.355097, 49.397617, 0.023463, -0.032010, -1.035715

1497926231.895092, 0.025962, -0.019242, -0.000305, 0.032000, 0.016000, 0.960000, 2.785739, 3.317474, 49.400226, 0.023674, -0.032286, -1.037871

1497926231.908582, 0.025045, -0.020159, 0.003054, 0.032000, 0.016000, 0.960000, 2.784774, 3.287331, 49.402295, 0.023863, -0.032566, -1.039854

1497926231.922498, 0.024435, -0.020159, 0.005192, 0.032000, 0.000000, 0.992000, 2.784000, 3.263189, 49.403939, 0.023719, -0.032793, -1.043416

1497926231.936303, 0.027794, -0.016799, 0.004887, 0.032000, 0.000000, 0.992000, 2.781156, 3.274942, 49.403322, 0.023621, -0.032969, -1.046949

1497926231.949784, 0.027184, -0.018631, 0.002443, 0.032000, 0.016000, 0.976000, 2.778882, 3.284338, 49.402826, 0.023835, -0.033205, -1.048650

1497926231.963562, 0.024435, -0.016493, 0.003360, 0.016000, 0.000000, 0.944000, 2.742611, 3.257233, 49.406647, 0.023686, -0.033106, -1.048465

1497926231.976987, 0.024435, -0.021686, -0.000916, 0.016000, 0.000000, 0.944000, 2.713621, 3.235569, 49.409671, 0.023534, -0.033068, -1.048418

1497926231.990647, 0.024435, -0.018326, 0.001222, 0.032000, 0.000000, 0.960000, 2.690446, 3.218250, 49.412070, 0.023391, -0.033270, -1.052588

1497926232.004114, 0.022297, -0.016188, 0.003360, 0.016000, 0.016000, 0.992000, 2.671859, 3.221138, 49.412890, 0.023515, -0.033153, -1.049748

1497926232.017732, 0.027184, -0.018326, 0.002138, 0.016000, 0.016000, 0.992000, 2.656997, 3.223446, 49.413541, 0.023707, -0.033068, -1.047067

1497926232.031605, 0.026573, -0.020159, 0.000611, 0.016000, 0.000000, 0.992000, 2.662859, 3.226448, 49.413029, 0.023594, -0.033003, -1.047051

1497926232.045055, 0.025962, -0.017104, 0.003665, 0.016000, 0.000000, 0.976000, 2.667549, 3.228850, 49.412620, 0.023463, -0.032897, -1.047039

1497926232.058729, 0.024129, -0.021686, 0.000916, 0.016000, 0.000000, 0.976000, 2.671303, 3.230773, 49.412291, 0.023317, -0.032858, -1.047053

1497926232.072164, 0.025962, -0.020769, 0.001527, -0.000000, 0.000000, 0.992000, 2.671520, 3.161776, 49.416742, 0.023136, -0.032517, -1.043474

1497926232.085925, 0.028100, -0.020769, 0.003971, -0.000000, 0.000000, 0.992000, 2.671690, 3.106670, 49.420228, 0.022993, -0.032192, -1.039760

1497926232.099562, 0.025656, -0.020159, 0.002749, 0.016000, 0.016000, 0.944000, 2.675563, 3.150890, 49.417219, 0.023192, -0.032167, -1.036924

1497926232.113288, 0.025351, -0.018326, 0.003665, 0.016000, 0.016000, 0.976000, 2.678663, 3.186314, 49.414779, 0.023375, -0.032109, -1.034232

1497926232.127106, 0.023518, -0.016188, 0.003054, 0.016000, 0.016000, 0.976000, 2.681146, 3.214683, 49.412807, 0.023534, -0.032024, -1.031703

1497926232.140548, 0.030238, -0.021991, 0.006414, 0.048000, 0.016000, 0.976000, 2.680162, 3.217015, 49.412709, 0.023717, -0.032620, -1.040354

1497926232.154049, 0.031765, -0.019242, 0.004276, 0.016000, 0.000000, 0.976000, 2.679375, 3.218878, 49.412630, 0.023662, -0.032550, -1.040387

1497926232.167484, 0.026573, -0.018326, 0.003054, 0.016000, 0.000000, 0.976000, 2.664082, 3.206125, 49.414286, 0.023538, -0.032468, -1.040473

1497926232.181177, 0.023518, -0.018326, -0.000305, 0.032000, 0.016000, 0.960000, 2.651839, 3.195916, 49.415606, 0.023716, -0.032721, -1.043090

1497926232.194989, 0.030238, -0.021075, 0.004276, 0.016000, 0.000000, 0.976000, 2.642040, 3.187744, 49.416659, 0.023650, -0.032680, -1.043158

1497926232.208593, 0.024129, -0.021075, 0.002138, 0.016000, 0.000000, 0.976000, 2.634197, 3.181204, 49.417499, 0.023499, -0.032634, -1.043274

1497926232.222471, 0.023213, -0.019548, 0.001527, 0.016000, 0.000000, 0.992000, 2.627921, 3.175970, 49.418170, 0.023345, -0.032569, -1.043348

1497926232.235901, 0.023518, -0.019242, -0.000916, 0.016000, 0.000000, 0.992000, 2.672219, 3.153680, 49.417222, 0.023187, -0.032496, -1.043184

1497926232.249572, 0.024435, -0.018937, 0.002138, 0.032000, 0.000000, 0.960000, 2.707637, 3.135855, 49.416428, 0.023050, -0.032720, -1.047195

1497926232.263023, 0.024129, -0.019853, 0.003971, 0.016000, 0.000000, 0.944000, 2.683657, 3.136143, 49.417718, 0.022905, -0.032669, -1.046978

1497926232.276767, 0.027184, -0.017715, 0.001833, 0.016000, 0.000000, 0.944000, 2.664504, 3.136373, 49.418740, 0.022812, -0.032595, -1.046884

1497926232.290497, 0.026267, -0.015577, 0.003054, 0.032000, 0.016000, 0.960000, 2.649201, 3.136555, 49.419551, 0.023040, -0.032812, -1.049163

1497926232.303970, 0.028711, -0.017715, 0.003054, -0.000000, 0.000000, 0.992000, 2.672322, 3.155644, 49.417091, 0.022900, -0.032434, -1.045498

1497926232.317752, 0.026573, -0.018326, 0.003971, -0.000000, 0.000000, 0.992000, 2.690826, 3.170921, 49.415109, 0.022743, -0.032077, -1.041874

1497926232.331188, 0.025656, -0.019242, 0.001833, 0.016000, 0.000000, 0.976000, 2.688975, 3.166501, 49.415493, 0.022624, -0.032018, -1.041721

1497926232.344816, 0.027794, -0.017410, 0.004887, 0.016000, 0.000000, 0.976000, 2.687494, 3.162963, 49.415800, 0.022540, -0.031941, -1.041527

1497926232.358383, 0.025045, -0.017410, 0.002749, 0.016000, 0.000000, 0.976000, 2.686308, 3.160132, 49.416046, 0.022420, -0.031864, -1.041363

1497926232.372115, 0.028711, -0.016188, 0.003971, 0.064000, 0.000000, 0.976000, 2.701966, 3.191228, 49.413194, 0.022146, -0.032574, -1.055237

1497926232.386015, 0.027184, -0.015882, 0.003054, 0.064000, 0.000000, 0.960000, 2.714492, 3.216104, 49.410894, 0.021860, -0.033293, -1.069068

1497926232.399482, 0.025656, -0.018326, 0.004581, 0.048000, 0.000000, 0.960000, 2.639957, 3.218383, 49.414784, 0.021695, -0.033766, -1.077999

1497926232.413006, 0.026573, -0.018937, 0.001833, -0.000000, 0.016000, 0.976000, 2.580350, 3.220199, 49.417814, 0.021832, -0.033366, -1.071440

1497926232.426441, 0.021380, -0.018326, 0.001527, -0.000000, 0.016000, 0.976000, 2.532679, 3.221648, 49.420186, 0.021903, -0.032963, -1.065208

1497926232.440112, 0.025045, -0.018631, 0.001222, 0.016000, 0.032000, 0.992000, 2.578984, 3.257136, 49.415465, 0.022390, -0.032848, -1.058912

1497926232.453839, 0.025656, -0.019853, 0.005192, 0.032000, 0.032000, 0.960000, 2.616034, 3.285530, 49.411638, 0.022952, -0.033123, -1.058421

1497926232.467396, 0.025656, -0.016799, 0.002443, 0.032000, 0.032000, 0.960000, 2.643049, 3.204421, 49.415526, 0.023499, -0.033345, -1.057278

1497926232.481236, 0.026573, -0.017410, 0.002443, 0.016000, 0.016000, 0.992000, 2.664619, 3.139634, 49.418527, 0.023684, -0.033251, -1.054061

1497926232.494670, 0.025351, -0.017715, 0.001222, 0.032000, 0.000000, 0.992000, 2.681849, 3.087869, 49.420856, 0.023547, -0.033422, -1.057614

1497926232.508367, 0.024129, -0.017104, 0.002138, 0.032000, 0.000000, 0.992000, 2.663048, 3.114424, 49.420206, 0.023403, -0.033586, -1.061246

1497926232.521877, 0.024129, -0.014966, 0.002443, 0.032000, 0.032000, 0.960000, 2.648009, 3.135662, 49.419672, 0.023920, -0.033772, -1.059586

1497926232.535556, 0.027489, -0.020159, 0.002138, 0.032000, 0.016000, 0.944000, 2.634062, 3.133636, 49.420545, 0.024148, -0.034036, -1.061889

1497926232.549389, 0.028405, -0.017410, 0.002749, 0.016000, 0.016000, 0.944000, 2.622921, 3.132018, 49.421241, 0.024363, -0.033943, -1.058812

1497926232.562850, 0.019853, -0.013744, 0.000916, 0.016000, 0.016000, 0.976000, 2.614018, 3.130725, 49.421794, 0.024439, -0.033786, -1.055830

1497926232.576436, 0.021991, -0.018021, 0.002443, 0.016000, 0.016000, 0.976000, 2.623650, 3.096389, 49.423447, 0.024544, -0.033693, -1.052692

1497926232.589897, 0.024129, -0.017715, 0.001527, 0.016000, 0.000000, 0.960000, 2.631349, 3.068938, 49.424750, 0.024368, -0.033590, -1.052391

1497926232.603610, 0.029016, -0.018631, 0.002443, 0.016000, 0.032000, 0.960000, 2.656007, 3.082472, 49.422589, 0.024869, -0.033474, -1.044604

1497926232.617333, 0.027489, -0.020464, 0.005192, 0.016000, 0.032000, 0.960000, 2.675747, 3.093306, 49.420847, 0.025340, -0.033388, -1.036906

1497926232.630854, 0.025351, -0.014355, 0.002443, 0.016000, 0.016000, 0.992000, 2.691550, 3.101978, 49.419445, 0.025464, -0.033249, -1.033797

1497926232.644635, 0.027489, -0.019242, -0.000611, 0.016000, 0.016000, 0.976000, 2.687490, 3.125616, 49.418177, 0.025631, -0.033185, -1.030928

1497926232.658165, 0.020464, -0.019548, 0.003665, 0.016000, 0.016000, 0.976000, 2.684240, 3.144534, 49.417153, 0.025693, -0.033123, -1.028155

1497926232.671811, 0.026573, -0.016493, 0.003665, 0.032000, 0.016000, 0.960000, 2.650423, 3.128840, 49.419974, 0.025867, -0.033336, -1.030768

1497926232.685232, 0.030543, -0.018631, 0.003971, 0.032000, 0.016000, 0.944000, 2.623322, 3.116262, 49.422215, 0.026089, -0.033580, -1.033651

1497926232.698965, 0.027184, -0.016493, 0.003665, 0.032000, 0.000000, 0.944000, 2.601609, 3.106185, 49.423997, 0.025934, -0.033745, -1.038557

1497926232.712653, 0.029016, -0.017715, 0.004887, -0.000000, 0.016000, 0.976000, 2.632186, 3.145653, 49.419882, 0.026027, -0.033345, -1.032234

1497926232.726124, 0.026267, -0.021075, 0.001222, -0.000000, 0.016000, 0.976000, 2.656630, 3.177203, 49.416556, 0.026082, -0.032991, -1.026130

1497926232.739854, 0.025351, -0.017410, 0.000916, 0.016000, 0.000000, 0.992000, 2.676404, 3.135767, 49.418135, 0.025902, -0.032887, -1.026215

1497926232.753321, 0.027794, -0.016493, 0.004276, 0.032000, 0.000000, 0.976000, 2.692216, 3.102624, 49.419368, 0.025752, -0.033050, -1.030406

1497926232.766963, 0.026878, -0.019853, 0.003054, 0.032000, 0.000000, 0.976000, 2.704863, 3.076115, 49.420335, 0.025598, -0.033259, -1.034404

1497926232.780529, 0.025656, -0.019242, 0.001222, 0.032000, 0.000000, 0.992000, 2.664842, 3.088411, 49.421742, 0.025431, -0.033443, -1.038451

1497926232.794267, 0.024129, -0.020464, 0.001222, 0.016000, 0.000000, 0.992000, 2.632827, 3.098244, 49.422843, 0.025246, -0.033374, -1.038388

1497926232.808226, 0.026573, -0.021686, 0.001527, 0.016000, 0.000000, 0.992000, 2.606295, 3.088288, 49.424872, 0.025104, -0.033325, -1.038421

1497926232.821751, 0.025962, -0.020769, 0.003971, 0.016000, 0.000000, 0.976000, 2.585083, 3.080328, 49.426483, 0.024947, -0.033261, -1.038566

1497926232.835295, 0.024129, -0.018937, 0.001527, 0.032000, 0.016000, 0.976000, 2.568124, 3.073963, 49.427763, 0.025096, -0.033491, -1.041279

1497926232.848755, 0.021991, -0.019548, 0.003360, 0.032000, 0.016000, 0.976000, 2.605456, 3.086512, 49.425027, 0.025213, -0.033725, -1.043676

1497926232.862413, 0.024435, -0.015577, 0.002443, -0.000000, 0.016000, 0.960000, 2.635327, 3.096551, 49.422815, 0.025259, -0.033294, -1.037002

1497926232.876142, 0.025656, -0.015882, 0.001527, -0.000000, 0.016000, 0.960000, 2.659281, 3.087932, 49.422072, 0.025324, -0.032877, -1.030346

1497926232.889711, 0.023518, -0.016188, -0.000305, 0.016000, 0.016000, 0.992000, 2.678447, 3.081034, 49.421467, 0.025429, -0.032772, -1.027384

1497926232.903552, 0.019242, -0.018631, -0.000305, 0.016000, 0.000000, 0.976000, 2.693782, 3.075515, 49.420977, 0.025180, -0.032698, -1.027270

1497926232.916993, 0.021686, -0.019853, -0.000000, 0.016000, 0.000000, 0.976000, 2.706050, 3.071099, 49.420582, 0.024961, -0.032636, -1.027083

1497926232.930609, 0.023824, -0.021075, -0.000000, 0.016000, 0.000000, 0.976000, 2.715866, 3.067566, 49.420263, 0.024778, -0.032595, -1.026843

1497926232.944037, 0.025351, -0.018631, 0.002138, 0.016000, 0.000000, 0.976000, 2.690218, 3.114819, 49.418710, 0.024615, -0.032517, -1.026836

1497926232.957788, 0.025962, -0.017104, 0.000916, 0.016000, 0.000000, 0.976000, 2.669698, 3.152620, 49.417426, 0.024474, -0.032422, -1.027048

1497926232.971601, 0.026573, -0.015577, 0.003360, 0.016000, 0.016000, 0.992000, 2.668175, 3.113854, 49.419966, 0.024644, -0.032320, -1.024296

1497926232.985079, 0.025045, -0.017410, 0.001833, 0.032000, 0.016000, 0.976000, 2.666957, 3.082878, 49.421974, 0.024809, -0.032550, -1.026588

1497926232.998830, 0.027489, -0.019242, 0.001222, 0.032000, 0.016000, 0.976000, 2.665983, 3.058120, 49.423564, 0.025011, -0.032805, -1.028767

1497926233.012250, 0.030238, -0.018937, 0.005803, 0.048000, 0.016000, 0.992000, 2.698356, 3.071464, 49.420980, 0.025170, -0.033325, -1.036872

1497926233.025862, 0.028711, -0.019242, 0.003054, 0.048000, 0.016000, 0.992000, 2.724232, 3.082129, 49.418896, 0.025317, -0.033844, -1.044639

1497926233.039534, 0.025656, -0.022602, 0.002749, 0.032000, 0.000000, 0.960000, 2.763719, 3.059663, 49.418100, 0.025156, -0.034093, -1.048139

1497926233.053221, 0.025962, -0.017715, 0.002443, 0.016000, 0.000000, 0.960000, 2.795335, 3.041672, 49.417432, 0.024991, -0.033996, -1.047059

1497926233.067090, 0.027184, -0.017410, 0.003971, 0.016000, 0.000000, 0.960000, 2.820644, 3.027267, 49.416879, 0.024849, -0.033902, -1.045820

1497926233.080549, 0.025351, -0.016188, 0.003054, 0.032000, 0.016000, 0.976000, 2.757561, 3.049309, 49.419084, 0.025014, -0.034089, -1.046897

1497926233.094130, 0.026878, -0.017104, 0.005192, 0.016000, 0.000000, 0.976000, 2.707062, 3.066948, 49.420784, 0.024864, -0.033972, -1.046230

1497926233.107560, 0.024129, -0.016493, 0.001527, 0.016000, 0.000000, 0.976000, 2.681123, 3.128601, 49.418334, 0.024681, -0.033841, -1.045924

1497926233.121309, 0.025962, -0.018937, 0.001833, 0.016000, 0.000000, 0.992000, 2.660392, 3.177863, 49.416311, 0.024536, -0.033744, -1.045794

1497926233.134998, 0.027184, -0.016188, 0.003971, 0.016000, 0.016000, 0.960000, 2.643820, 3.217234, 49.414653, 0.024720, -0.033631, -1.043244

1497926233.148639, 0.025351, -0.020159, 0.001527, 0.016000, 0.016000, 0.960000, 2.648301, 3.216636, 49.414452, 0.024877, -0.033573, -1.040754

1497926233.162502, 0.029932, -0.020159, 0.001833, 0.016000, 0.000000, 0.976000, 2.651886, 3.216158, 49.414290, 0.024787, -0.033501, -1.040932

1497926233.175942, 0.024129, -0.019548, 0.003054, 0.016000, 0.000000, 0.976000, 2.638122, 3.215832, 49.415048, 0.024610, -0.033414, -1.041154

1497926233.189515, 0.024740, -0.018937, 0.003054, 0.032000, 0.000000, 0.960000, 2.627109, 3.215572, 49.415652, 0.024449, -0.033608, -1.045800

1497926233.202956, 0.026878, -0.020769, 0.004581, 0.032000, 0.016000, 0.976000, 2.618298, 3.215364, 49.416133, 0.024642, -0.033855, -1.048391

1497926233.216710, 0.026573, -0.018021, 0.003665, 0.032000, 0.016000, 0.976000, 2.624996, 3.194936, 49.417103, 0.024835, -0.034067, -1.050833

1497926233.230520, 0.023824, -0.018326, 0.000305, 0.016000, 0.016000, 0.976000, 2.630344, 3.178626, 49.417870, 0.024965, -0.033974, -1.048130

1497926233.244064, 0.025045, -0.021380, 0.002749, 0.064000, -0.016000, 0.992000, 2.604401, 3.152661, 49.420907, 0.024307, -0.034575, -1.061468

1497926233.258064, 0.025656, -0.021075, -0.000611, 0.064000, -0.016000, 0.992000, 2.583629, 3.131870, 49.423320, 0.023687, -0.035176, -1.074703

1497926233.271498, 0.028100, -0.021991, 0.001833, 0.016000, 0.000000, 0.992000, 2.566998, 3.115224, 49.425238, 0.023579, -0.035090, -1.074271

1497926233.285165, 0.022297, -0.018326, 0.001222, 0.016000, 0.016000, 0.992000, 2.584955, 3.116075, 49.424249, 0.023698, -0.034969, -1.071056

1497926233.298659, 0.025656, -0.018326, 0.000305, 0.016000, 0.016000, 0.992000, 2.599306, 3.116755, 49.423453, 0.023857, -0.034848, -1.067843

1497926233.312338, 0.025962, -0.018021, 0.000305, 0.016000, 0.016000, 0.976000, 2.611862, 3.085274, 49.424766, 0.024025, -0.034734, -1.064509

1497926233.326149, 0.025045, -0.017715, 0.005192, 0.016000, 0.016000, 0.976000, 2.621907, 3.060086, 49.425800, 0.024178, -0.034623, -1.061013

1497926233.339637, 0.028405, -0.019548, 0.002443, 0.016000, 0.000000, 0.992000, 2.629944, 3.039933, 49.426617, 0.024063, -0.034520, -1.060328

1497926233.353381, 0.025962, -0.018631, 0.002138, 0.016000, 0.000000, 0.960000, 2.618569, 3.089100, 49.424172, 0.023928, -0.034418, -1.059985

1497926233.366807, 0.026267, -0.019853, 0.003665, 0.016000, 0.000000, 0.960000, 2.609474, 3.128402, 49.422181, 0.023792, -0.034328, -1.059782

1497926233.380533, 0.025045, -0.018326, 0.001222, 0.032000, 0.032000, 0.992000, 2.623798, 3.132456, 49.421166, 0.024296, -0.034526, -1.058210

1497926233.394195, 0.028405, -0.018937, 0.001527, 0.016000, 0.000000, 0.992000, 2.635292, 3.135709, 49.420348, 0.024186, -0.034416, -1.057839

1497926233.408018, 0.025962, -0.018937, -0.000000, 0.016000, 0.000000, 0.992000, 2.644508, 3.138316, 49.419691, 0.024051, -0.034312, -1.057460

1497926233.421771, 0.027489, -0.020159, 0.004276, 0.016000, 0.000000, 0.976000, 2.632314, 3.120291, 49.421483, 0.023936, -0.034230, -1.057102

1497926233.435227, 0.025045, -0.018326, 0.002138, 0.032000, 0.000000, 0.992000, 2.622563, 3.105876, 49.422909, 0.023792, -0.034387, -1.060962

1497926233.448907, 0.025045, -0.019242, 0.003360, 0.032000, 0.000000, 0.992000, 2.649059, 3.095396, 49.422154, 0.023657, -0.034560, -1.064554

1497926233.462353, 0.029627, -0.020464, 0.002138, 0.016000, 0.016000, 0.960000, 2.670263, 3.087009, 49.421537, 0.023875, -0.034486, -1.060971

1497926233.476030, 0.030543, -0.017715, 0.001833, 0.016000, 0.016000, 0.960000, 2.687230, 3.080296, 49.421036, 0.024108, -0.034382, -1.057344

1497926233.489842, 0.028711, -0.018631, 0.003360, 0.016000, -0.032000, 0.944000, 2.635361, 3.009655, 49.428181, 0.023362, -0.034203, -1.060224

1497926233.503314, 0.028711, -0.016799, 0.003360, 0.016000, 0.000000, 0.960000, 2.593813, 2.953071, 49.433792, 0.023268, -0.034082, -1.059594

1497926233.517055, 0.025045, -0.016493, 0.004887, 0.016000, 0.000000, 0.960000, 2.592632, 3.006604, 49.430627, 0.023134, -0.033962, -1.059119

1497926233.530497, 0.024435, -0.017104, 0.004887, 0.016000, 0.000000, 0.976000, 2.591686, 3.049417, 49.428054, 0.022988, -0.033842, -1.058717

1497926233.544145, 0.028711, -0.018021, 0.002749, 0.016000, 0.016000, 0.976000, 2.590928, 3.083659, 49.425969, 0.023213, -0.033745, -1.055639

1497926233.558043, 0.025045, -0.018326, -0.000000, 0.016000, 0.016000, 0.976000, 2.588435, 3.092068, 49.425574, 0.023393, -0.033659, -1.052710

1497926233.571639, 0.024129, -0.018326, 0.002443, 0.016000, 0.016000, 0.976000, 2.586443, 3.098785, 49.425258, 0.023549, -0.033569, -1.049846

1497926233.585438, 0.029016, -0.017104, 0.004276, 0.016000, 0.016000, 0.976000, 2.570238, 3.073244, 49.427698, 0.023773, -0.033469, -1.046994

1497926233.598904, 0.026267, -0.021075, 0.004276, 0.016000, 0.016000, 0.976000, 2.557266, 3.052800, 49.429638, 0.023947, -0.033418, -1.044185

1497926233.612526, 0.026267, -0.017715, 0.002138, 0.016000, 0.000000, 0.992000, 2.595798, 3.068431, 49.426661, 0.023817, -0.033310, -1.044088

1497926233.626070, 0.025045, -0.018021, 0.000611, 0.016000, 0.000000, 0.992000, 2.626607, 3.080928, 49.424256, 0.023672, -0.033208, -1.043900

1497926233.639872, 0.021991, -0.018631, 0.002443, 0.048000, 0.032000, 0.960000, 2.651243, 3.090921, 49.422317, 0.024093, -0.033828, -1.051958

1497926233.653585, 0.024129, -0.016188, 0.001527, 0.016000, 0.000000, 0.976000, 2.689658, 3.084530, 49.420640, 0.023930, -0.033704, -1.051372

1497926233.667026, 0.026267, -0.021075, 0.004887, 0.016000, 0.000000, 0.976000, 2.720424, 3.079410, 49.419276, 0.023790, -0.033645, -1.050594

1497926233.680727, 0.023518, -0.018937, 0.003971, 0.016000, 0.000000, 0.992000, 2.692074, 3.055381, 49.422319, 0.023622, -0.033559, -1.049846

1497926233.694200, 0.025962, -0.018326, 0.000611, 0.016000, 0.016000, 0.976000, 2.669419, 3.036179, 49.424731, 0.023790, -0.033471, -1.046346

1497926233.707859, 0.022297, -0.021075, 0.000916, 0.016000, 0.016000, 0.976000, 2.651312, 3.020831, 49.426647, 0.023912, -0.033425, -1.042942

1497926233.721743, 0.023518, -0.017715, 0.004276, -0.000000, 0.000000, 0.960000, 2.675107, 3.014090, 49.425776, 0.023688, -0.033048, -1.038919

1497926233.735199, 0.026878, -0.018631, 0.004887, 0.016000, 0.016000, 0.976000, 2.694193, 3.008682, 49.425069, 0.023866, -0.032976, -1.035329

1497926233.748954, 0.020159, -0.016188, 0.003054, 0.016000, 0.016000, 0.976000, 2.691730, 3.019960, 49.424515, 0.023959, -0.032877, -1.031897

1497926233.764007, 0.027489, -0.017410, 0.003054, 0.032000, 0.016000, 0.976000, 2.689758, 3.028991, 49.424070, 0.024212, -0.033126, -1.033666

1497926233.777652, 0.025045, -0.018631, 0.002749, 0.032000, 0.000000, 0.976000, 2.688179, 3.036222, 49.423712, 0.024065, -0.033321, -1.037618

1497926233.791204, 0.027794, -0.019548, 0.004276, 0.032000, 0.000000, 0.976000, 2.631937, 3.003121, 49.428761, 0.023954, -0.033521, -1.041737

1497926233.804946, 0.027794, -0.019548, 0.003971, 0.016000, 0.016000, 0.976000, 2.587061, 2.976707, 49.432728, 0.024149, -0.033456, -1.038534

1497926233.818813, 0.027794, -0.019548, 0.003665, 0.016000, 0.016000, 0.976000, 2.602053, 2.989863, 49.431147, 0.024344, -0.033395, -1.035376

1497926233.832266, 0.028405, -0.018937, 0.001222, 0.016000, 0.016000, 0.976000, 2.614032, 3.000375, 49.429878, 0.024533, -0.033318, -1.032296

1497926233.845797, 0.026878, -0.021075, 0.002749, 0.016000, 0.000000, 0.992000, 2.623606, 3.008776, 49.428860, 0.024397, -0.033256, -1.032122

1497926233.859252, 0.026267, -0.018631, 0.001527, 0.016000, 0.000000, 0.992000, 2.649926, 3.001059, 49.427925, 0.024252, -0.033163, -1.031817

1497926233.872896, 0.022602, -0.016799, -0.000916, 0.016000, 0.000000, 0.976000, 2.670997, 2.994881, 49.427166, 0.024067, -0.033056, -1.031493

1497926233.886692, 0.025962, -0.019853, 0.003665, 0.016000, 0.016000, 0.960000, 2.702436, 3.004275, 49.424887, 0.024241, -0.033011, -1.028013

1497926233.900214, 0.030849, -0.020769, 0.003665, 0.016000, 0.016000, 0.960000, 2.727562, 3.011783, 49.423050, 0.024469, -0.032975, -1.024507

1497926233.914105, 0.025045, -0.018937, 0.002138, 0.016000, 0.016000, 0.976000, 2.747648, 3.017784, 49.421571, 0.024619, -0.032917, -1.021005

1497926233.927545, 0.029322, -0.017410, 0.000916, -0.000000, 0.000000, 0.960000, 2.731432, 3.040445, 49.421081, 0.024455, -0.032535, -1.017346

1497926233.941233, 0.028711, -0.019548, 0.000305, -0.000000, 0.000000, 0.960000, 2.718455, 3.058577, 49.420678, 0.024296, -0.032190, -1.013877

1497926233.954714, 0.026878, -0.019242, 0.001222, 0.016000, 0.000000, 0.960000, 2.724587, 3.106269, 49.417365, 0.024166, -0.032132, -1.014019

1497926233.968355, 0.026573, -0.018631, 0.003054, 0.016000, 0.000000, 0.960000, 2.729491, 3.144422, 49.414682, 0.024039, -0.032070, -1.014219

1497926233.982184, 0.024435, -0.021075, 0.002443, 0.016000, 0.016000, 0.976000, 2.733413, 3.174943, 49.412513, 0.024196, -0.032053, -1.011670

1497926233.995646, 0.026573, -0.019853, 0.000916, 0.016000, 0.016000, 0.960000, 2.703408, 3.166243, 49.414722, 0.024378, -0.032017, -1.009324

1497926234.009345, 0.029932, -0.019853, 0.002138, 0.016000, 0.016000, 0.960000, 2.679399, 3.159280, 49.416475, 0.024609, -0.031986, -1.007105

1497926234.022771, 0.028711, -0.017104, 0.006109, 0.016000, 0.000000, 0.992000, 2.676708, 3.186892, 49.414848, 0.024497, -0.031888, -1.007643

1497926234.036529, 0.024129, -0.019242, 0.006720, 0.016000, 0.016000, 0.976000, 2.674555, 3.208980, 49.413535, 0.024642, -0.031848, -1.005610

1497926234.050288, 0.022907, -0.019853, -0.000611, 0.016000, 0.016000, 0.976000, 2.672832, 3.226650, 49.412478, 0.024773, -0.031814, -1.003796

1497926234.063894, 0.026267, -0.019853, 0.004581, 0.016000, 0.016000, 1.008000, 2.688378, 3.157633, 49.416093, 0.024926, -0.031771, -1.001560

1497926234.077742, 0.029322, -0.019242, 0.000916, 0.032000, 0.016000, 0.976000, 2.700812, 3.102406, 49.418913, 0.025152, -0.032041, -1.004141

1497926234.091191, 0.023213, -0.017410, 0.000611, 0.032000, 0.016000, 0.976000, 2.676374, 3.090426, 49.420993, 0.025282, -0.032274, -1.006810

1497926234.104851, 0.025045, -0.017104, 0.001222, 0.016000, 0.016000, 0.992000, 2.656833, 3.080848, 49.422645, 0.025415, -0.032192, -1.004412

1497926234.118327, 0.023518, -0.018631, 0.001222, 0.016000, 0.016000, 0.960000, 2.641208, 3.073188, 49.423960, 0.025533, -0.032138, -1.002140

1497926234.132083, 0.027794, -0.019548, 0.001527, 0.032000, 0.016000, 0.960000, 2.628712, 3.067062, 49.425006, 0.025729, -0.032411, -1.005265

1497926234.145820, 0.025045, -0.018937, 0.002749, -0.000000, 0.000000, 1.008000, 2.618719, 3.062163, 49.425841, 0.025506, -0.032056, -1.002386

1497926234.159282, 0.024740, -0.018937, 0.000305, -0.000000, 0.000000, 1.008000, 2.593999, 3.091510, 49.425317, 0.025282, -0.031698, -0.999785

1497926234.173024, 0.025656, -0.019548, 0.002443, 0.016000, 0.016000, 1.008000, 2.574226, 3.114981, 49.424877, 0.025425, -0.031654, -0.998082

1497926234.186447, 0.028100, -0.021075, 0.000305, 0.032000, 0.000000, 0.976000, 2.607609, 3.032842, 49.428236, 0.025287, -0.031888, -1.003250

1497926234.200203, 0.025962, -0.020769, 0.001222, 0.032000, 0.000000, 0.976000, 2.634290, 2.967169, 49.430807, 0.025132, -0.032126, -1.008011

1497926234.213817, 0.026267, -0.019548, 0.002749, -0.000000, 0.000000, 0.976000, 2.655620, 2.914655, 49.432790, 0.024923, -0.031791, -1.004449

1497926234.227486, 0.025656, -0.018326, -0.000000, 0.016000, 0.016000, 0.992000, 2.625513, 2.975693, 49.430762, 0.025071, -0.031735, -1.001819

1497926234.241362, 0.026878, -0.020464, -0.001833, 0.016000, 0.016000, 0.992000, 2.601387, 3.024595, 49.429069, 0.025241, -0.031711, -0.999615

1497926234.254798, 0.023213, -0.015272, 0.002749, 0.016000, 0.016000, 0.960000, 2.629996, 3.061309, 49.425295, 0.025359, -0.031622, -0.997427

1497926234.268419, 0.027794, -0.014050, -0.000305, 0.032000, 0.016000, 1.008000, 2.652872, 3.090665, 49.422245, 0.025541, -0.031799, -1.000127

1497926234.281883, 0.027794, -0.018631, 0.001527, 0.032000, 0.016000, 1.008000, 2.671164, 3.114140, 49.419786, 0.025714, -0.032031, -1.002699

1497926234.295629, 0.028100, -0.020769, 0.002138, 0.016000, 0.016000, 0.992000, 2.666418, 3.063132, 49.423230, 0.025881, -0.032005, -1.000245

1497926234.309391, 0.025351, -0.019548, 0.002138, 0.016000, 0.016000, 0.992000, 2.662627, 3.022408, 49.425942, 0.026007, -0.031965, -0.997682

1497926234.322857, 0.022602, -0.015272, 0.003360, 0.032000, 0.000000, 0.960000, 2.596066, 3.043175, 49.428208, 0.025784, -0.032125, -1.003065

1497926234.336608, 0.027184, -0.019548, 0.003360, 0.016000, 0.000000, 0.976000, 2.542775, 3.059796, 49.429953, 0.025642, -0.032061, -1.004075

1497926234.350069, 0.029932, -0.019242, 0.003360, 0.016000, 0.000000, 0.976000, 2.500116, 3.073098, 49.431303, 0.025533, -0.031986, -1.005314

1497926234.363845, 0.027184, -0.020464, 0.003360, 0.032000, 0.000000, 0.976000, 2.548143, 3.049167, 49.430333, 0.025389, -0.032211, -1.010683

1497926234.377505, 0.025656, -0.019548, 0.001527, -0.000000, 0.016000, 0.976000, 2.586547, 3.030028, 49.429515, 0.025458, -0.031861, -1.004633

1497926234.391161, 0.023824, -0.019548, 0.002138, -0.000000, 0.016000, 0.976000, 2.534257, 3.031561, 49.432130, 0.025506, -0.031516, -0.998905

1497926234.404981, 0.029322, -0.017410, 0.003054, 0.032000, 0.000000, 0.992000, 2.492428, 3.032785, 49.434181, 0.025394, -0.031696, -1.004554

1497926234.418505, 0.023213, -0.021686, 0.004276, -0.000000, 0.016000, 1.008000, 2.458968, 3.033763, 49.435797, 0.025428, -0.031379, -0.999224

1497926234.432159, 0.024740, -0.019548, 0.005803, -0.000000, 0.016000, 1.008000, 2.466406, 3.002410, 49.437341, 0.025484, -0.031045, -0.993810

1497926234.445609, 0.026267, -0.019242, 0.003054, 0.032000, 0.000000, 0.976000, 2.472359, 2.977311, 49.438561, 0.025318, -0.031258, -0.999748

1497926234.459307, 0.026878, -0.021686, 0.002443, 0.032000, 0.000000, 0.976000, 2.491868, 2.954965, 49.438922, 0.025172, -0.031509, -1.005414

1497926234.473149, 0.024435, -0.022602, -0.000305, 0.016000, 0.016000, 0.992000, 2.507459, 2.937105, 49.439198, 0.025306, -0.031518, -1.003250

1497926234.486612, 0.025656, -0.017715, 0.002749, -0.000000, 0.000000, 0.976000, 2.519922, 2.922827, 49.439411, 0.025093, -0.031159, -1.000331

1497926234.500267, 0.024129, -0.019242, 0.003665, -0.000000, 0.000000, 0.976000, 2.530830, 2.912498, 49.439463, 0.024869, -0.030832, -0.997381

1497926234.513714, 0.024740, -0.018631, 0.000916, 0.032000, 0.000000, 0.976000, 2.539557, 2.904233, 49.439502, 0.024696, -0.031050, -1.002720

1497926234.527439, 0.024435, -0.021075, 0.002749, 0.016000, 0.000000, 0.960000, 2.529857, 2.930817, 49.438430, 0.024536, -0.031037, -1.003507

1497926234.541179, 0.020769, -0.018937, 0.001833, 0.016000, 0.000000, 0.960000, 2.522097, 2.952086, 49.437561, 0.024331, -0.030994, -1.004392

1497926234.554720, 0.024740, -0.021686, 0.003665, 0.032000, 0.000000, 0.992000, 2.515888, 2.969101, 49.436859, 0.024171, -0.031243, -1.009665

1497926234.568607, 0.023518, -0.017715, 0.002749, 0.032000, 0.032000, 0.960000, 2.509933, 2.998167, 49.435407, 0.024674, -0.031526, -1.009508

1497926234.582041, 0.028100, -0.019242, 0.002138, 0.032000, 0.032000, 0.960000, 2.505172, 3.021403, 49.434234, 0.025215, -0.031816, -1.009567

1497926234.595763, 0.024740, -0.017104, 0.003054, -0.000000, 0.016000, 0.976000, 2.484693, 3.073140, 49.432078, 0.025286, -0.031438, -1.004108

1497926234.609409, 0.028100, -0.019242, 0.002749, -0.000000, 0.016000, 0.976000, 2.468315, 3.114507, 49.430310, 0.025405, -0.031094, -0.999010

1497926234.623161, 0.029322, -0.020769, 0.002443, 0.032000, 0.000000, 0.976000, 2.455217, 3.147586, 49.428867, 0.025291, -0.031329, -1.005238

1497926234.636934, 0.025962, -0.018631, 0.002749, 0.016000, 0.016000, 0.976000, 2.427430, 3.123305, 49.431779, 0.025456, -0.031287, -1.004318

1497926234.650396, 0.026573, -0.019548, 0.001833, 0.016000, 0.016000, 0.976000, 2.405217, 3.103894, 49.434088, 0.025619, -0.031251, -1.003480

1497926234.664130, 0.023824, -0.019853, 0.001527, 0.016000, 0.000000, 0.960000, 2.438105, 3.056303, 49.435442, 0.025439, -0.031206, -1.005092

1497926234.677643, 0.027489, -0.015272, 0.002749, 0.016000, 0.000000, 0.976000, 2.464418, 3.018221, 49.436477, 0.025303, -0.031097, -1.006346

1497926234.691289, 0.029932, -0.014355, 0.004581, 0.016000, 0.000000, 0.976000, 2.485469, 2.987749, 49.437274, 0.025203, -0.030983, -1.007357

1497926234.705182, 0.024740, -0.018326, 0.000611, 0.016000, 0.000000, 0.976000, 2.517977, 2.945680, 49.438154, 0.025041, -0.030931, -1.008115

1497926234.718642, 0.028100, -0.023213, 0.002138, 0.032000, 0.000000, 0.960000, 2.543966, 2.912041, 49.438816, 0.024908, -0.031220, -1.013381

1497926234.732245, 0.026267, -0.021686, 0.003971, 0.032000, 0.000000, 0.960000, 2.517051, 2.870893, 49.442600, 0.024756, -0.031487, -1.018609

1497926234.745664, 0.024740, -0.019853, 0.001833, 0.016000, 0.000000, 0.992000, 2.495494, 2.837936, 49.445595, 0.024588, -0.031438, -1.018849

1497926234.759376, 0.030238, -0.016188, 0.003054, 0.016000, 0.000000, 0.992000, 2.478966, 2.878859, 49.444061, 0.024505, -0.031345, -1.019277

1497926234.773187, 0.025962, -0.014966, 0.001222, 0.064000, 0.016000, 0.960000, 2.482307, 2.911588, 49.441977, 0.024393, -0.032130, -1.037726

1497926234.786794, 0.028405, -0.019242, 0.002443, 0.016000, 0.000000, 0.960000, 2.484982, 2.937796, 49.440292, 0.024286, -0.032074, -1.038067

1497926234.800799, 0.027489, -0.021380, 0.004887, 0.016000, 0.000000, 0.960000, 2.520259, 2.975258, 49.436266, 0.024178, -0.032057, -1.038296

1497926234.814415, 0.026573, -0.019242, 0.003971, 0.016000, 0.000000, 0.992000, 2.548494, 3.005241, 49.433005, 0.024048, -0.031995, -1.038344

1497926234.828329, 0.026878, -0.020464, 0.004887, 0.016000, 0.016000, 0.992000, 2.552742, 2.977303, 49.434476, 0.024231, -0.031971, -1.035376

1497926234.842287, 0.028405, -0.019853, 0.000916, 0.016000, 0.016000, 0.992000, 2.556136, 2.954972, 49.435641, 0.024434, -0.031939, -1.032401

1497926234.855874, 0.026267, -0.022907, 0.001833, 0.032000, 0.016000, 0.992000, 2.558850, 2.937119, 49.436564, 0.024618, -0.032240, -1.034697

1497926234.869626, 0.028405, -0.021686, 0.003360, 0.016000, 0.000000, 0.976000, 2.577539, 2.939356, 49.435460, 0.024506, -0.032218, -1.034552

1497926234.883550, 0.022907, -0.016493, 0.003360, 0.016000, 0.000000, 0.976000, 2.592481, 2.941144, 49.434573, 0.024326, -0.032130, -1.034339

1497926234.897149, 0.025045, -0.019853, 0.001222, 0.016000, 0.016000, 0.976000, 2.620940, 2.959076, 49.432002, 0.024475, -0.032094, -1.031055

1497926234.910894, 0.022297, -0.014661, 0.002138, 0.016000, 0.016000, 0.976000, 2.643696, 2.973415, 49.429930, 0.024588, -0.031992, -1.027766

1497926234.924686, 0.025962, -0.016799, 0.003054, 0.016000, 0.016000, 0.976000, 2.661895, 2.984882, 49.428262, 0.024749, -0.031922, -1.024485

1497926234.938374, 0.027184, -0.017715, 0.002443, 0.032000, 0.000000, 0.992000, 2.643505, 2.944519, 49.431670, 0.024619, -0.032117, -1.028543

1497926234.952360, 0.028711, -0.019853, 0.004887, 0.032000, 0.000000, 0.960000, 2.628791, 2.912227, 49.434367, 0.024518, -0.032361, -1.032833

1497926234.965903, 0.022602, -0.018021, 0.000611, 0.016000, 0.016000, 0.960000, 2.633471, 2.919441, 49.433693, 0.024634, -0.032301, -1.029345

1497926234.979751, 0.021380, -0.016799, -0.000305, 0.016000, 0.016000, 0.992000, 2.637214, 2.925212, 49.433152, 0.024727, -0.032221, -1.025926

1497926234.993710, 0.022602, -0.019853, 0.002138, 0.016000, 0.016000, 0.992000, 2.640208, 2.929828, 49.432719, 0.024837, -0.032187, -1.022548

1497926235.007298, 0.023213, -0.017104, 0.002138, 0.016000, 0.000000, 0.944000, 2.606641, 2.913823, 49.435446, 0.024649, -0.032110, -1.022577

1497926235.021209, 0.026573, -0.016493, 0.003665, 0.032000, 0.016000, 0.960000, 2.579839, 2.901044, 49.437603, 0.024849, -0.032349, -1.025074

1497926235.035078, 0.026267, -0.018326, 0.003665, 0.032000, 0.016000, 0.960000, 2.562335, 2.862077, 49.440785, 0.025041, -0.032608, -1.027523

1497926235.048649, 0.022297, -0.019242, 0.004276, 0.032000, 0.016000, 0.976000, 2.548310, 2.830856, 49.443307, 0.025163, -0.032859, -1.029745

1497926235.062574, 0.024435, -0.018021, 0.003665, 0.016000, 0.016000, 0.960000, 2.537076, 2.805849, 49.445310, 0.025298, -0.032798, -1.026267

1497926235.076154, 0.021991, -0.017104, 0.002138, 0.016000, 0.016000, 0.960000, 2.526291, 2.750653, 49.448964, 0.025389, -0.032720, -1.022663

1497926235.090059, 0.024435, -0.019242, 0.002443, 0.016000, 0.000000, 0.976000, 2.517666, 2.706516, 49.451839, 0.025210, -0.032660, -1.022343

1497926235.103948, 0.026573, -0.019853, 0.004276, 0.032000, 0.000000, 0.960000, 2.545611, 2.722785, 49.449515, 0.025068, -0.032887, -1.026897

1497926235.117532, 0.025351, -0.017410, 0.001222, 0.032000, 0.000000, 0.960000, 2.567985, 2.735810, 49.447640, 0.024905, -0.033073, -1.031282

1497926235.131329, 0.026267, -0.017715, 0.003054, 0.016000, 0.000000, 1.008000, 2.520524, 2.764021, 49.448513, 0.024757, -0.032975, -1.030819

1497926235.145189, 0.020769, -0.019242, 0.003665, 0.032000, 0.000000, 0.992000, 2.482503, 2.786617, 49.449168, 0.024547, -0.033166, -1.035412

1497926235.158792, 0.029932, -0.021686, 0.003054, 0.032000, 0.000000, 0.992000, 2.452053, 2.804711, 49.449664, 0.024459, -0.033379, -1.040159

1497926235.172680, 0.026267, -0.017104, 0.003360, 0.032000, 0.000000, 0.976000, 2.492158, 2.833485, 49.446019, 0.024330, -0.033545, -1.044770

1497926235.186341, 0.029932, -0.021380, 0.001833, 0.032000, 0.000000, 0.976000, 2.524214, 2.856483, 49.443069, 0.024248, -0.033763, -1.049151

1497926235.200041, 0.026878, -0.020769, 0.001527, 0.032000, 0.016000, 0.992000, 2.501055, 2.876087, 49.443110, 0.024448, -0.034002, -1.051360

1497926235.214007, 0.024129, -0.015882, 0.002138, -0.000000, 0.000000, 0.992000, 2.482522, 2.891773, 49.443129, 0.024226, -0.033588, -1.047527

1497926235.227576, 0.027184, -0.017410, 0.002138, -0.000000, 0.000000, 0.992000, 2.467693, 2.904324, 49.443136, 0.024043, -0.033194, -1.043874

1497926235.241469, 0.029627, -0.019242, 0.003360, 0.032000, 0.000000, 0.992000, 2.488998, 2.914268, 49.441483, 0.023969, -0.033383, -1.048422

1497926235.255421, 0.027184, -0.020769, 0.000611, 0.016000, 0.000000, 0.976000, 2.506042, 2.922223, 49.440152, 0.023861, -0.033329, -1.048350

1497926235.269014, 0.027489, -0.018631, 0.002138, 0.016000, 0.000000, 0.976000, 2.470795, 2.946409, 49.440491, 0.023750, -0.033237, -1.048510

1497926235.282873, 0.029627, -0.019548, 0.002138, 0.016000, 0.016000, 0.960000, 2.442575, 2.965771, 49.440735, 0.023990, -0.033181, -1.045992

1497926235.296697, 0.023824, -0.016493, 0.003665, 0.032000, 0.016000, 0.992000, 2.419985, 2.981269, 49.440914, 0.024156, -0.033373, -1.049231

1497926235.310264, 0.024129, -0.015882, 0.001527, 0.032000, 0.016000, 0.992000, 2.466486, 2.991242, 49.438014, 0.024318, -0.033551, -1.052094

1497926235.324226, 0.026878, -0.018937, 0.003665, 0.016000, 0.000000, 0.976000, 2.503645, 2.999210, 49.435663, 0.024199, -0.033467, -1.052142

1497926235.337911, 0.023824, -0.017715, 0.004581, 0.016000, 0.000000, 0.992000, 2.502210, 2.958187, 49.438207, 0.024032, -0.033360, -1.052000

1497926235.351690, 0.022907, -0.019853, -0.002443, 0.016000, 0.000000, 0.992000, 2.501059, 2.925340, 49.440220, 0.023860, -0.033285, -1.051865

1497926235.365539, 0.025962, -0.019853, 0.003665, 0.016000, 0.000000, 0.992000, 2.500138, 2.899044, 49.441815, 0.023732, -0.033215, -1.051577

1497926235.379124, 0.025656, -0.017410, 0.003054, 0.016000, 0.000000, 0.992000, 2.515016, 2.893463, 49.441388, 0.023595, -0.033110, -1.051209

1497926235.392976, 0.027184, -0.018937, 0.003665, 0.016000, 0.000000, 0.992000, 2.526915, 2.889000, 49.441042, 0.023487, -0.033033, -1.050766

1497926235.406904, 0.025045, -0.017104, 0.001833, -0.000000, -0.016000, 0.960000, 2.537329, 2.903100, 49.439683, 0.023000, -0.032638, -1.049177

1497926235.420488, 0.025656, -0.014050, 0.001222, -0.000000, -0.016000, 0.960000, 2.545663, 2.914384, 49.438590, 0.022523, -0.032203, -1.047627

1497926235.434411, 0.027794, -0.019242, 0.000611, 0.016000, 0.000000, 0.976000, 2.550378, 2.937816, 49.436961, 0.022450, -0.032152, -1.047391

1497926235.448160, 0.027489, -0.018326, 0.004887, 0.016000, 0.000000, 0.944000, 2.554145, 2.956541, 49.435650, 0.022369, -0.032097, -1.047278

1497926235.461983, 0.024435, -0.019853, 0.005803, 0.016000, 0.000000, 0.944000, 2.557156, 2.971508, 49.434597, 0.022250, -0.032064, -1.047183

1497926235.475970, 0.027184, -0.014966, 0.002138, 0.016000, 0.000000, 0.960000, 2.559562, 2.983473, 49.433752, 0.022176, -0.031963, -1.047090

1497926235.489576, 0.027184, -0.021075, -0.001833, 0.032000, 0.000000, 0.976000, 2.561486, 2.993039, 49.433074, 0.022097, -0.032211, -1.051507

1497926235.503522, 0.024129, -0.020769, 0.003665, 0.032000, 0.000000, 0.976000, 2.512494, 2.966626, 49.437180, 0.021984, -0.032457, -1.056013

1497926235.517471, 0.029016, -0.018021, 0.003054, 0.032000, 0.000000, 0.976000, 2.473332, 2.945512, 49.440417, 0.021942, -0.032660, -1.060642

1497926235.531075, 0.020464, -0.012828, 0.002443, 0.032000, 0.000000, 0.976000, 2.442023, 2.928631, 49.442976, 0.021777, -0.032782, -1.065353

1497926235.544993, 0.025962, -0.015272, 0.004887, 0.032000, 0.000000, 0.976000, 2.434346, 2.949253, 49.442129, 0.021696, -0.032940, -1.070021

1497926235.558857, 0.028711, -0.019242, 0.005803, 0.032000, 0.000000, 0.976000, 2.428204, 2.965752, 49.441444, 0.021653, -0.033149, -1.074651

1497926235.572484, 0.028711, -0.021380, 0.001527, 0.032000, 0.000000, 0.976000, 2.440038, 2.912732, 49.444013, 0.021606, -0.033380, -1.079081

1497926235.586423, 0.030849, -0.021991, 0.006414, 0.032000, 0.000000, 0.976000, 2.449505, 2.870306, 49.446026, 0.021596, -0.033624, -1.083218

1497926235.600035, 0.025962, -0.020464, 0.002443, -0.000000, 0.000000, 0.976000, 2.457079, 2.836358, 49.447610, 0.021436, -0.033277, -1.078656

1497926235.613806, 0.030543, -0.019242, 0.003665, -0.000000, 0.000000, 0.976000, 2.478678, 2.841192, 49.446254, 0.021345, -0.032923, -1.074099

1497926235.627636, 0.029932, -0.019548, 0.001527, 0.048000, 0.000000, 0.944000, 2.495946, 2.845057, 49.445163, 0.021245, -0.033432, -1.084146

1497926235.641205, 0.021991, -0.015577, -0.000611, 0.016000, 0.032000, 0.944000, 2.495019, 2.866862, 49.443951, 0.021711, -0.033259, -1.074938

1497926235.655114, 0.027184, -0.021686, 0.002138, 0.016000, 0.032000, 0.944000, 2.494276, 2.884322, 49.442973, 0.022248, -0.033182, -1.066021

1497926235.668985, 0.030543, -0.019548, 0.002138, 0.032000, 0.016000, 0.976000, 2.493682, 2.898300, 49.442185, 0.022547, -0.033433, -1.068188

1497926235.682567, 0.026878, -0.018021, 0.001222, 0.016000, 0.000000, 0.976000, 2.527285, 2.910474, 49.439764, 0.022448, -0.033340, -1.067568

1497926235.696495, 0.030849, -0.018937, 0.004887, 0.016000, 0.000000, 0.976000, 2.554196, 2.920222, 49.437806, 0.022412, -0.033269, -1.066803

1497926235.710143, 0.023518, -0.019242, 0.005803, 0.016000, 0.000000, 0.960000, 2.541719, 2.893886, 49.439998, 0.022271, -0.033203, -1.066094

1497926235.723941, 0.028405, -0.019242, 0.003971, 0.016000, 0.016000, 0.992000, 2.531735, 2.872813, 49.441739, 0.022498, -0.033136, -1.062220

1497926235.737863, 0.025962, -0.022907, 0.002138, 0.016000, 0.016000, 0.992000, 2.522902, 2.821738, 49.445131, 0.022691, -0.033123, -1.058253

1497926235.751443, 0.022907, -0.017104, 0.003665, 0.032000, 0.000000, 0.976000, 2.548990, 2.780802, 49.446113, 0.022543, -0.033301, -1.062022

1497926235.765259, 0.026267, -0.017410, 0.002749, 0.032000, 0.000000, 0.976000, 2.569848, 2.748066, 49.446863, 0.022449, -0.033488, -1.065521

1497926235.779158, 0.025351, -0.018021, 0.002138, 0.032000, 0.000000, 0.976000, 2.552201, 2.803771, 49.444650, 0.022348, -0.033678, -1.069193

1497926235.792601, 0.024435, -0.019548, 0.000305, 0.032000, 0.016000, 0.976000, 2.538097, 2.848283, 49.442832, 0.022551, -0.033913, -1.070782

1497926235.806251, 0.024740, -0.016799, 0.000611, 0.032000, 0.016000, 0.976000, 2.495820, 2.803325, 49.447553, 0.022760, -0.034109, -1.072519

1497926235.819742, 0.030238, -0.021991, 0.001222, 0.032000, 0.016000, 0.992000, 2.461966, 2.767324, 49.451278, 0.023029, -0.034357, -1.074196

1497926235.833496, 0.026267, -0.020464, 0.002443, -0.000000, 0.000000, 0.992000, 2.434862, 2.738501, 49.454225, 0.022845, -0.034002, -1.069556

1497926235.847242, 0.023518, -0.020769, 0.002749, -0.000000, 0.000000, 0.992000, 2.478518, 2.730806, 49.452481, 0.022627, -0.033659, -1.064801

1497926235.860699, 0.023518, -0.016799, 0.000611, 0.016000, 0.000000, 0.976000, 2.513429, 2.724652, 49.451059, 0.022475, -0.033548, -1.063743

1497926235.874286, 0.023518, -0.019242, 0.000916, 0.032000, 0.032000, 0.976000, 2.509057, 2.753976, 49.449656, 0.022992, -0.033773, -1.060596

1497926235.887737, 0.023824, -0.021075, 0.003971, 0.032000, 0.032000, 0.976000, 2.505558, 2.777446, 49.448521, 0.023498, -0.034018, -1.057709

1497926235.901503, 0.025656, -0.014966, 0.001222, -0.000000, 0.000000, 0.992000, 2.502757, 2.796227, 49.447604, 0.023303, -0.033594, -1.053348

1497926235.915297, 0.031154, -0.014966, 0.002138, 0.048000, 0.016000, 0.960000, 2.547453, 2.791414, 49.445594, 0.023517, -0.034085, -1.062925

1497926235.928797, 0.024435, -0.016799, 0.000916, 0.048000, 0.016000, 0.960000, 2.583141, 2.787570, 49.443959, 0.023636, -0.034588, -1.071963

1497926235.942579, 0.026878, -0.021075, 0.005498, 0.016000, 0.016000, 1.008000, 2.581557, 2.754600, 49.445890, 0.023797, -0.034520, -1.067082

1497926235.956008, 0.021686, -0.018937, 0.002138, 0.016000, 0.016000, 1.008000, 2.580288, 2.728198, 49.447420, 0.023879, -0.034418, -1.062217

1497926235.969690, 0.025351, -0.017104, -0.000000, 0.016000, 0.016000, 0.992000, 2.579272, 2.707060, 49.448634, 0.024021, -0.034303, -1.057378

1497926235.983310, 0.025962, -0.019548, 0.002138, 0.016000, 0.000000, 0.960000, 2.593966, 2.722221, 49.447033, 0.023875, -0.034227, -1.056092

1497926235.997001, 0.028405, -0.019853, 0.002749, 0.016000, 0.000000, 0.960000, 2.605719, 2.734345, 49.445747, 0.023767, -0.034158, -1.054802

1497926236.010814, 0.028711, -0.017410, 0.003665, -0.000000, 0.000000, 0.976000, 2.582960, 2.745162, 49.446341, 0.023600, -0.033771, -1.049969

1497926236.024248, 0.024129, -0.016188, 0.001833, 0.016000, 0.016000, 0.992000, 2.564743, 2.753819, 49.446808, 0.023730, -0.033649, -1.045673

1497926236.037858, 0.025045, -0.022602, 0.004581, 0.016000, 0.016000, 0.992000, 2.550163, 2.760748, 49.447176, 0.023876, -0.033619, -1.041546

1497926236.051298, 0.024740, -0.020769, 0.006720, 0.016000, 0.000000, 0.992000, 2.519893, 2.813967, 49.445728, 0.023718, -0.033549, -1.041061

1497926236.065065, 0.020159, -0.015882, 0.004276, 0.016000, 0.016000, 1.008000, 2.495702, 2.856491, 49.444516, 0.023803, -0.033425, -1.037798

1497926236.078831, 0.028405, -0.018631, 0.002138, 0.016000, 0.016000, 1.008000, 2.476462, 2.857388, 49.445432, 0.024001, -0.033339, -1.034745

1497926236.092298, 0.021075, -0.016799, 0.000916, 0.048000, 0.032000, 0.976000, 2.461079, 2.858106, 49.446158, 0.024372, -0.033912, -1.045014

1497926236.106115, 0.024435, -0.017104, 0.005192, 0.048000, 0.032000, 0.976000, 2.448779, 2.858679, 49.446736, 0.024790, -0.034484, -1.055219

1497926236.119555, 0.022297, -0.018021, 0.002443, 0.032000, 0.000000, 0.944000, 2.507953, 2.845589, 49.444525, 0.024591, -0.034653, -1.059819

1497926236.133310, 0.023213, -0.018631, 0.001527, 0.016000, 0.000000, 0.976000, 2.555365, 2.835097, 49.442700, 0.024404, -0.034550, -1.058986

1497926236.146955, 0.021380, -0.018631, 0.002443, 0.016000, 0.000000, 0.976000, 2.506759, 2.806174, 49.446838, 0.024195, -0.034444, -1.058319

1497926236.160581, 0.030543, -0.021075, 0.002443, 0.032000, 0.000000, 0.976000, 2.467929, 2.783067, 49.450097, 0.024124, -0.034641, -1.062640

1497926236.174416, 0.023824, -0.019242, 0.000611, 0.016000, 0.000000, 0.976000, 2.436900, 2.764601, 49.452672, 0.023960, -0.034542, -1.062163

1497926236.187853, 0.024740, -0.015272, 0.004581, 0.016000, 0.000000, 0.976000, 2.446938, 2.768336, 49.451967, 0.023800, -0.034388, -1.061600

1497926236.201560, 0.026267, -0.020769, 0.003054, 0.032000, 0.000000, 0.944000, 2.454971, 2.771325, 49.451402, 0.023680, -0.034602, -1.066275

1497926236.215019, 0.026878, -0.019548, 0.003971, 0.016000, 0.016000, 0.960000, 2.411705, 2.790399, 49.452458, 0.023862, -0.034516, -1.062735

1497926236.228825, 0.030238, -0.020769, 0.006720, 0.016000, 0.016000, 0.960000, 2.377077, 2.805661, 49.453271, 0.024096, -0.034454, -1.059519

1497926236.242674, 0.022907, -0.016188, 0.003054, 0.016000, 0.016000, 0.976000, 2.349366, 2.817873, 49.453901, 0.024227, -0.034325, -1.056629

1497926236.256142, 0.029627, -0.019242, 0.003971, 0.016000, 0.016000, 0.976000, 2.360310, 2.827555, 49.452827, 0.024434, -0.034234, -1.053765

1497926236.269872, 0.025656, -0.021075, 0.004276, 0.016000, 0.016000, 0.992000, 2.369067, 2.835302, 49.451965, 0.024587, -0.034169, -1.050917

1497926236.283310, 0.029016, -0.019853, 0.003054, 0.016000, 0.000000, 0.992000, 2.423991, 2.822710, 49.450024, 0.024476, -0.034071, -1.050823

1497926236.297056, 0.021686, -0.020159, 0.002749, 0.016000, 0.000000, 0.992000, 2.467870, 2.812647, 49.448427, 0.024274, -0.033989, -1.050471

1497926236.310769, 0.024740, -0.018937, 0.001222, 0.016000, 0.016000, 0.976000, 2.502936, 2.804604, 49.447121, 0.024417, -0.033907, -1.046793

1497926236.324324, 0.025045, -0.020464, 0.004887, 0.016000, 0.016000, 0.976000, 2.549230, 2.849782, 49.442173, 0.024556, -0.033846, -1.043095

1497926236.338204, 0.022602, -0.017410, 0.000916, 0.016000, 0.016000, 0.976000, 2.586282, 2.885941, 49.438151, 0.024669, -0.033750, -1.039488

1497926236.351639, 0.022907, -0.018021, 0.001527, 0.016000, 0.000000, 1.008000, 2.565574, 2.847846, 49.441439, 0.024472, -0.033637, -1.038920

1497926236.365311, 0.027489, -0.023518, 0.003054, 0.016000, 0.000000, 0.976000, 2.549008, 2.817371, 49.444041, 0.024346, -0.033613, -1.038464

1497926236.378819, 0.025656, -0.019853, 0.003054, 0.016000, 0.000000, 0.976000, 2.535756, 2.792993, 49.446106, 0.024194, -0.033538, -1.038008

1497926236.392474, 0.025351, -0.018937, 0.001222, 0.016000, 0.000000, 0.976000, 2.525154, 2.773490, 49.447746, 0.024045, -0.033453, -1.037577

1497926236.406351, 0.024435, -0.020769, 0.005192, 0.016000, 0.000000, 0.976000, 2.516672, 2.757889, 49.449051, 0.023891, -0.033401, -1.037094

1497926236.419868, 0.026573, -0.016493, 0.003360, 0.032000, 0.000000, 0.992000, 2.543893, 2.746336, 49.448301, 0.023768, -0.033550, -1.041079

1497926236.433472, 0.025962, -0.021075, 0.001527, -0.000000, 0.016000, 0.976000, 2.565682, 2.737087, 49.447688, 0.023836, -0.033199, -1.033118

1497926236.446919, 0.030238, -0.018326, 0.003360, -0.000000, 0.016000, 0.976000, 2.551031, 2.714246, 49.449705, 0.023958, -0.032816, -1.025231

1497926236.460572, 0.027489, -0.019853, 0.004581, 0.016000, 0.016000, 0.976000, 2.539297, 2.695951, 49.451310, 0.024141, -0.032770, -1.021246

1497926236.474369, 0.023518, -0.019853, 0.003665, 0.016000, 0.016000, 0.992000, 2.529901, 2.681302, 49.452588, 0.024265, -0.032724, -1.017324

1497926236.487888, 0.025656, -0.018631, 0.003360, 0.016000, 0.016000, 0.992000, 2.519561, 2.666592, 49.453912, 0.024410, -0.032657, -1.013466

1497926236.501699, 0.026573, -0.021075, 0.000305, 0.032000, 0.016000, 0.992000, 2.511300, 2.654840, 49.454964, 0.024605, -0.032925, -1.015463

1497926236.515136, 0.029322, -0.018937, 0.006109, 0.032000, 0.000000, 1.056000, 2.522171, 2.646389, 49.454864, 0.024503, -0.033078, -1.019117

1497926236.528756, 0.030849, -0.018631, 0.006720, 0.032000, 0.000000, 1.056000, 2.530865, 2.639630, 49.454781, 0.024429, -0.033230, -1.022614

1497926236.542356, 0.025656, -0.018631, 0.000916, 0.016000, 0.000000, 0.992000, 2.537819, 2.634224, 49.454713, 0.024276, -0.033145, -1.021892

1497926236.556110, 0.025962, -0.019242, 0.003054, 0.016000, 0.000000, 0.992000, 2.509243, 2.678601, 49.453787, 0.024136, -0.033070, -1.021461

1497926236.569887, 0.025962, -0.016799, 0.004276, 0.016000, 0.000000, 1.008000, 2.486400, 2.714070, 49.453007, 0.024000, -0.032956, -1.021193

1497926236.583337, 0.021991, -0.017410, 0.001222, 0.032000, 0.016000, 0.976000, 2.469100, 2.726923, 49.453167, 0.024138, -0.033172, -1.023856

1497926236.596928, 0.025351, -0.018326, 0.000916, 0.032000, 0.016000, 0.976000, 2.455256, 2.737206, 49.453288, 0.024322, -0.033397, -1.026631

1497926236.610411, 0.027184, -0.018326, 0.002749, 0.032000, 0.000000, 0.976000, 2.444180, 2.745433, 49.453380, 0.024198, -0.033567, -1.031664

1497926236.624146, 0.025045, -0.019853, 0.002749, 0.016000, 0.000000, 0.976000, 2.449935, 2.782947, 49.450999, 0.024051, -0.033490, -1.031766

1497926236.637869, 0.027184, -0.018631, 0.003971, 0.016000, 0.000000, 0.976000, 2.454531, 2.812916, 49.449075, 0.023936, -0.033397, -1.031919

1497926236.651367, 0.025045, -0.019548, 0.002749, 0.016000, 0.000000, 0.976000, 2.509648, 2.805825, 49.446711, 0.023787, -0.033318, -1.031774

1497926236.665167, 0.025962, -0.018326, 0.001833, 0.016000, 0.016000, 0.976000, 2.553759, 2.800147, 49.444775, 0.023959, -0.033242, -1.028146

1497926236.678629, 0.026573, -0.017410, 0.002443, 0.016000, 0.016000, 0.976000, 2.589060, 2.795601, 49.443196, 0.024126, -0.033151, -1.024362

1497926236.692398, 0.028100, -0.020464, 0.003971, 0.032000, 0.000000, 0.992000, 2.565910, 2.773536, 49.445646, 0.024026, -0.033360, -1.028512

1497926236.706078, 0.025045, -0.018631, 0.005192, 0.032000, 0.000000, 0.992000, 2.547407, 2.755900, 49.447588, 0.023883, -0.033539, -1.032643

1497926236.719685, 0.029932, -0.018326, 0.004581, 0.016000, 0.000000, 0.960000, 2.531536, 2.790230, 49.446478, 0.023801, -0.033450, -1.032365

1497926236.733511, 0.026573, -0.021075, 0.002749, -0.000000, 0.000000, 0.976000, 2.518855, 2.817655, 49.445571, 0.023622, -0.033115, -1.028504

1497926236.746943, 0.025962, -0.018631, 0.002749, -0.000000, 0.000000, 0.976000, 2.508721, 2.839570, 49.444832, 0.023432, -0.032743, -1.024838

1497926236.760650, 0.028405, -0.019548, 0.002138, 0.064000, 0.016000, 0.992000, 2.485223, 2.808809, 49.447776, 0.023404, -0.033534, -1.042476

1497926236.774154, 0.025962, -0.016799, 0.003971, 0.016000, 0.000000, 0.992000, 2.466421, 2.784197, 49.450109, 0.023276, -0.033412, -1.042192

1497926236.787890, 0.025045, -0.019548, 0.002749, 0.016000, 0.000000, 0.992000, 2.498887, 2.778774, 49.448784, 0.023143, -0.033335, -1.041743

1497926236.801700, 0.027489, -0.014966, 0.003054, 0.016000, 0.000000, 0.976000, 2.524822, 2.774440, 49.447710, 0.023046, -0.033205, -1.041216

1497926236.815162, 0.028711, -0.019548, 0.003360, -0.000000, 0.000000, 0.960000, 2.545546, 2.770976, 49.446842, 0.022894, -0.032852, -1.036899

1497926236.828908, 0.026878, -0.020769, 0.004581, -0.000000, 0.000000, 0.960000, 2.515518, 2.804309, 49.446499, 0.022734, -0.032523, -1.032890

1497926236.842343, 0.022907, -0.014966, 0.003971, 0.016000, 0.016000, 0.944000, 2.491463, 2.831009, 49.446196, 0.022895, -0.032419, -1.029751

1497926236.856099, 0.025962, -0.019242, 0.002138, 0.016000, 0.016000, 0.976000, 2.538153, 2.819281, 49.444491, 0.023087, -0.032371, -1.026344

1497926236.869820, 0.025962, -0.016188, -0.000000, 0.016000, 0.000000, 0.976000, 2.575533, 2.809889, 49.443093, 0.022972, -0.032272, -1.026019

1497926236.883417, 0.027184, -0.020464, 0.001527, 0.016000, 0.016000, 0.976000, 2.605454, 2.802369, 49.441952, 0.023173, -0.032242, -1.022232

1497926236.897318, 0.027184, -0.021380, 0.003971, 0.016000, 0.016000, 0.976000, 2.630377, 2.797387, 49.440914, 0.023376, -0.032232, -1.018326

1497926236.910752, 0.027794, -0.020464, 0.006414, 0.016000, 0.016000, 0.960000, 2.650336, 2.793396, 49.440074, 0.023575, -0.032206, -1.014344

1497926236.924458, 0.032681, -0.020159, 0.000611, 0.048000, 0.016000, 0.960000, 2.649723, 2.823238, 49.438412, 0.023798, -0.032792, -1.023714

1497926236.937915, 0.028100, -0.018631, 0.003360, 0.048000, 0.016000, 0.960000, 2.649232, 2.847127, 49.437068, 0.023951, -0.033342, -1.032885

1497926236.951584, 0.029932, -0.020159, 0.004276, 0.016000, 0.016000, 0.992000, 2.648838, 2.866247, 49.435984, 0.024161, -0.033286, -1.028993

1497926236.965374, 0.025962, -0.017715, 0.003665, 0.032000, 0.000000, 0.992000, 2.629240, 2.828937, 49.439180, 0.024031, -0.033460, -1.032778

1497926236.978841, 0.024129, -0.019548, 0.000305, 0.032000, 0.000000, 0.992000, 2.613584, 2.799133, 49.441706, 0.023873, -0.033648, -1.036563

1497926236.992579, 0.023518, -0.020769, 0.001527, 0.016000, 0.000000, 0.976000, 2.605901, 2.780468, 49.443165, 0.023705, -0.033593, -1.035763

1497926237.006003, 0.028405, -0.021686, 0.000305, 0.016000, 0.016000, 0.992000, 2.599740, 2.765501, 49.444329, 0.023892, -0.033546, -1.031638

1497926237.019756, 0.025962, -0.018021, 0.001527, 0.016000, 0.016000, 0.992000, 2.594801, 2.753505, 49.445257, 0.024051, -0.033458, -1.027544

1497926237.033475, 0.023824, -0.014661, 0.002749, 0.016000, 0.000000, 0.976000, 2.570569, 2.706823, 49.449101, 0.023884, -0.033323, -1.026844

1497926237.047027, 0.023824, -0.018021, 0.003054, 0.016000, 0.000000, 0.976000, 2.551208, 2.669526, 49.452131, 0.023715, -0.033232, -1.026129

1497926237.060884, 0.025045, -0.019242, 0.001527, 0.048000, 0.000000, 0.960000, 2.539369, 2.693230, 49.451455, 0.023507, -0.033699, -1.036514

1497926237.074318, 0.019242, -0.020769, 0.001527, 0.032000, 0.016000, 0.976000, 2.529881, 2.712225, 49.450903, 0.023619, -0.033948, -1.038283

1497926237.088000, 0.030849, -0.020159, 0.003054, 0.032000, 0.016000, 0.976000, 2.569008, 2.740787, 49.447311, 0.023888, -0.034190, -1.039782

1497926237.101467, 0.026878, -0.020159, 0.004276, -0.000000, 0.000000, 0.992000, 2.600276, 2.763611, 49.444406, 0.023689, -0.033829, -1.035243

1497926237.115088, 0.026573, -0.021380, 0.003665, 0.032000, 0.016000, 0.992000, 2.625267, 2.781853, 49.442062, 0.023892, -0.034080, -1.036345

1497926237.128983, 0.023518, -0.016493, 0.002138, 0.032000, 0.016000, 0.992000, 2.583912, 2.834911, 49.441227, 0.024058, -0.034262, -1.037983

1497926237.142448, 0.025351, -0.015272, 0.003665, 0.016000, 0.000000, 0.976000, 2.550730, 2.877475, 49.440491, 0.023908, -0.034110, -1.037714

1497926237.156059, 0.027184, -0.018021, 0.004276, -0.000000, 0.032000, 1.008000, 2.586926, 2.791219, 49.443555, 0.024220, -0.033645, -1.025725

1497926237.169515, 0.027794, -0.017715, 0.004887, -0.000000, 0.032000, 1.008000, 2.615854, 2.722258, 49.445878, 0.024528, -0.033184, -1.013445

1497926237.183124, 0.025351, -0.020769, 0.003665, 0.032000, 0.016000, 0.992000, 2.638980, 2.667117, 49.447655, 0.024697, -0.033439, -1.014376

1497926237.196930, 0.022297, -0.017715, 0.000916, 0.032000, 0.016000, 0.992000, 2.606549, 2.737948, 49.445503, 0.024828, -0.033649, -1.015899

1497926237.210510, 0.024740, -0.020159, 0.005803, -0.000000, 0.016000, 0.992000, 2.580630, 2.794541, 49.443697, 0.024864, -0.033284, -1.008675

1497926237.224365, 0.027184, -0.017410, 0.005498, 0.032000, 0.016000, 0.976000, 2.562914, 2.793335, 49.444686, 0.025063, -0.033502, -1.010991

1497926237.237797, 0.021075, -0.019242, 0.004887, 0.032000, 0.016000, 0.976000, 2.548722, 2.792368, 49.445475, 0.025166, -0.033731, -1.013386

1497926237.251444, 0.023824, -0.018937, 0.001833, 0.032000, 0.016000, 0.976000, 2.537356, 2.791594, 49.446103, 0.025310, -0.033955, -1.015865

1497926237.264995, 0.021991, -0.015577, 0.002138, 0.016000, 0.000000, 0.976000, 2.529149, 2.808579, 49.445561, 0.025096, -0.033810, -1.015954

1497926237.278689, 0.027489, -0.018937, 0.002749, 0.016000, 0.000000, 0.976000, 2.522575, 2.822186, 49.445123, 0.024964, -0.033714, -1.016112

1497926237.292593, 0.028405, -0.017410, 0.003054, 0.016000, 0.000000, 0.960000, 2.497926, 2.829963, 49.445929, 0.024854, -0.033606, -1.016485

1497926237.306042, 0.027184, -0.018021, 0.002138, 0.032000, 0.016000, 0.928000, 2.478229, 2.836177, 49.446565, 0.025058, -0.033847, -1.020129

1497926237.319590, 0.026573, -0.020464, 0.003054, 0.032000, 0.016000, 0.928000, 2.462485, 2.841144, 49.447066, 0.025253, -0.034117, -1.023844

1497926237.333024, 0.025045, -0.018631, 0.000611, 0.032000, 0.016000, 0.992000, 2.468288, 2.847186, 49.446429, 0.025404, -0.034311, -1.026737

1497926237.346742, 0.024129, -0.018937, 0.002138, 0.032000, 0.016000, 0.992000, 2.472933, 2.852024, 49.445918, 0.025545, -0.034512, -1.029531

1497926237.360560, 0.027489, -0.020769, 0.004887, 0.016000, 0.000000, 0.960000, 2.477574, 2.856960, 49.445401, 0.025408, -0.034434, -1.029801

1497926237.374065, 0.024129, -0.018631, 0.003054, 0.032000, 0.000000, 0.976000, 2.481291, 2.860914, 49.444986, 0.025225, -0.034586, -1.034748

1497926237.387903, 0.026267, -0.020769, 0.004581, 0.032000, 0.000000, 0.976000, 2.484268, 2.864080, 49.444653, 0.025082, -0.034772, -1.039563

1497926237.401339, 0.028100, -0.018937, 0.001527, -0.000000, 0.016000, 0.960000, 2.466464, 2.829255, 49.447549, 0.025162, -0.034364, -1.032402

1497926237.414939, 0.029322, -0.021380, 0.004581, 0.032000, 0.000000, 0.960000, 2.452249, 2.801448, 49.449840, 0.025054, -0.034565, -1.037529

1497926237.428587, 0.025351, -0.019548, 0.002138, 0.032000, 0.000000, 0.960000, 2.453744, 2.791580, 49.450323, 0.024897, -0.034739, -1.042557

1497926237.442348, 0.025962, -0.019853, 0.004581, 0.016000, 0.016000, 0.976000, 2.454936, 2.783716, 49.450708, 0.025045, -0.034657, -1.039173

1497926237.456241, 0.029322, -0.021380, 0.004887, -0.000000, 0.000000, 0.976000, 2.455886, 2.777446, 49.451013, 0.024877, -0.034306, -1.035255

1497926237.469716, 0.027489, -0.018937, 0.002443, -0.000000, 0.000000, 0.976000, 2.494207, 2.761011, 49.450015, 0.024675, -0.033922, -1.031236

1497926237.483268, 0.027184, -0.018937, 0.003665, 0.016000, 0.016000, 0.976000, 2.524902, 2.747845, 49.449191, 0.024838, -0.033841, -1.027497

1497926237.496718, 0.021380, -0.013134, 0.003971, 0.016000, 0.016000, 0.976000, 2.549434, 2.753795, 49.447601, 0.024917, -0.033683, -1.023717

1497926237.510432, 0.028711, -0.019853, 0.003360, 0.016000, -0.016000, 0.944000, 2.569074, 2.758559, 49.446319, 0.024481, -0.033576, -1.025637

1497926237.524230, 0.026878, -0.019548, 0.001833, 0.016000, 0.000000, 0.976000, 2.584796, 2.762372, 49.445287, 0.024350, -0.033503, -1.025100

1497926237.537759, 0.025351, -0.016799, 0.003360, 0.016000, 0.000000, 0.976000, 2.565218, 2.799574, 49.444214, 0.024195, -0.033388, -1.024775

1497926237.551516, 0.028405, -0.019242, 0.002749, 0.016000, 0.000000, 0.976000, 2.549538, 2.829365, 49.443329, 0.024092, -0.033310, -1.024639

1497926237.564951, 0.027794, -0.019242, -0.000000, 0.016000, 0.000000, 0.976000, 2.536185, 2.802598, 49.445540, 0.023976, -0.033226, -1.024528

1497926237.578567, 0.025351, -0.017410, 0.002749, 0.016000, 0.000000, 0.976000, 2.525501, 2.781181, 49.447297, 0.023832, -0.033124, -1.024369

1497926237.592150, 0.020159, -0.017410, 0.002138, 0.016000, 0.016000, 0.992000, 2.516952, 2.764046, 49.448693, 0.023917, -0.033031, -1.020906

1497926237.605931, 0.026267, -0.017104, -0.000305, 0.016000, 0.000000, 0.960000, 2.492611, 2.765879, 49.449824, 0.023795, -0.032933, -1.021055

1497926237.619743, 0.030238, -0.020464, 0.003054, 0.016000, 0.000000, 0.960000, 2.473150, 2.767345, 49.450719, 0.023729, -0.032882, -1.021265

1497926237.633187, 0.022602, -0.018937, 0.002443, 0.048000, 0.000000, 0.976000, 2.477785, 2.772589, 49.450193, 0.023479, -0.033325, -1.031900

1497926237.646753, 0.024740, -0.018326, 0.003054, 0.048000, 0.000000, 0.976000, 2.481500, 2.776794, 49.449771, 0.023267, -0.033758, -1.042287

1497926237.660231, 0.024129, -0.018021, 0.001527, 0.032000, 0.000000, 1.008000, 2.484478, 2.780165, 49.449432, 0.023127, -0.033907, -1.046488

1497926237.673983, 0.027794, -0.021380, 0.004581, 0.016000, 0.016000, 0.976000, 2.466560, 2.795316, 49.449475, 0.023335, -0.033859, -1.043013

1497926237.687716, 0.024435, -0.021075, 0.007025, 0.016000, 0.016000, 0.976000, 2.452246, 2.807419, 49.449501, 0.023494, -0.033808, -1.039721

1497926237.701221, 0.028100, -0.021991, 0.005498, -0.000000, 0.016000, 0.960000, 2.474845, 2.801509, 49.448710, 0.023607, -0.033457, -1.032336

1497926237.715042, 0.028405, -0.020464, 0.003665, 0.016000, 0.000000, 0.992000, 2.492918, 2.796782, 49.448070, 0.023517, -0.033390, -1.032160

1497926237.730292, 0.028100, -0.017410, 0.001833, 0.016000, 0.000000, 0.992000, 2.521936, 2.823912, 49.445057, 0.023464, -0.033308, -1.031944

1497926237.743921, 0.029932, -0.021686, 0.001527, 0.032000, 0.000000, 0.992000, 2.545111, 2.845580, 49.442627, 0.023399, -0.033526, -1.036265

1497926237.757352, 0.025351, -0.020769, 0.004276, -0.000000, 0.000000, 0.960000, 2.563625, 2.862890, 49.440671, 0.023199, -0.033178, -1.032290

1497926237.771005, 0.029627, -0.021380, 0.002443, -0.000000, 0.000000, 0.960000, 2.547476, 2.829461, 49.443430, 0.023068, -0.032848, -1.028365

1497926237.784889, 0.027184, -0.017104, 0.000916, 0.032000, 0.000000, 0.992000, 2.534547, 2.802699, 49.445619, 0.022980, -0.033019, -1.032740

1497926237.798346, 0.021991, -0.020464, 0.000305, 0.080000, 0.016000, 0.960000, 2.575551, 2.816244, 49.442730, 0.022573, -0.034099, -1.056658

1497926237.811985, 0.027794, -0.019548, 0.004887, 0.080000, 0.016000, 0.960000, 2.608406, 2.827096, 49.440388, 0.022282, -0.035165, -1.079776

1497926237.825419, 0.028405, -0.019242, 0.002443, -0.000000, 0.000000, 0.976000, 2.634722, 2.835787, 49.438495, 0.022122, -0.034777, -1.074587

1497926237.839019, 0.027489, -0.021380, 0.005498, -0.000000, 0.000000, 0.976000, 2.668372, 2.838470, 49.436537, 0.021957, -0.034428, -1.069344

1497926237.852804, 0.022907, -0.020464, 0.002443, 0.048000, 0.000000, 0.976000, 2.695239, 2.840611, 49.434956, 0.021774, -0.034907, -1.077495

1497926237.866383, 0.025351, -0.020464, 0.000916, 0.016000, 0.016000, 0.992000, 2.618777, 2.810668, 49.440777, 0.021954, -0.034820, -1.072647

1497926237.880310, 0.023824, -0.015272, 0.005803, 0.016000, 0.016000, 0.992000, 2.557618, 2.786716, 49.445334, 0.022118, -0.034671, -1.068049

1497926237.893739, 0.029016, -0.016799, 0.003360, 0.016000, 0.000000, 1.008000, 2.508700, 2.767555, 49.448916, 0.022046, -0.034529, -1.066920

1497926237.907446, 0.027489, -0.017715, 0.003971, 0.016000, 0.000000, 0.976000, 2.521807, 2.788198, 49.447090, 0.021965, -0.034416, -1.065937

1497926237.920941, 0.028100, -0.017410, 0.003665, 0.016000, 0.000000, 0.976000, 2.532309, 2.804741, 49.445618, 0.021887, -0.034297, -1.064977

1497926237.934603, 0.022297, -0.021686, 0.002138, 0.016000, 0.000000, 0.976000, 2.504975, 2.765371, 49.449227, 0.021739, -0.034239, -1.064074

1497926237.948435, 0.022602, -0.018326, 0.000611, 0.016000, 0.000000, 0.976000, 2.483122, 2.733897, 49.452080, 0.021603, -0.034140, -1.063223

1497926237.961893, 0.025656, -0.020769, 0.005498, 0.016000, 0.000000, 0.976000, 2.465649, 2.708731, 49.454339, 0.021500, -0.034069, -1.062336

1497926237.975523, 0.024740, -0.016493, 0.000611, 0.016000, 0.000000, 0.976000, 2.452499, 2.722649, 49.454228, 0.021394, -0.033943, -1.061647

1497926237.988966, 0.025656, -0.018631, 0.003971, 0.016000, 0.000000, 0.976000, 2.441976, 2.733786, 49.454135, 0.021298, -0.033845, -1.061020

1497926238.002668, 0.027489, -0.017104, 0.002749, -0.000000, 0.000000, 0.976000, 2.484011, 2.760106, 49.450579, 0.021167, -0.033449, -1.056518

1497926238.016390, 0.026573, -0.019548, 0.003360, 0.016000, 0.016000, 0.960000, 2.517659, 2.781175, 49.447697, 0.021400, -0.033387, -1.052499

1497926238.029946, 0.023824, -0.017715, 0.003054, 0.016000, 0.016000, 0.960000, 2.544592, 2.798039, 49.445367, 0.021588, -0.033300, -1.048493

1497926238.043842, 0.025962, -0.020159, 0.002443, 0.032000, 0.000000, 0.976000, 2.565095, 2.843548, 49.441711, 0.021512, -0.033521, -1.052503

1497926238.057277, 0.028100, -0.020159, 0.001222, 0.032000, 0.000000, 0.960000, 2.581489, 2.879940, 49.438751, 0.021453, -0.033739, -1.056593

1497926238.070970, 0.029932, -0.022907, -0.000000, 0.032000, 0.000000, 0.960000, 2.579230, 2.844057, 49.440946, 0.021429, -0.033995, -1.060558

1497926238.084455, 0.026267, -0.022602, 0.001527, 0.016000, 0.016000, 0.976000, 2.577421, 2.815333, 49.442685, 0.021638, -0.033955, -1.056302

1497926238.098089, 0.023824, -0.021991, 0.001833, -0.000000, 0.016000, 0.976000, 2.575973, 2.792342, 49.444064, 0.021718, -0.033601, -1.048266

1497926238.111980, 0.023518, -0.022297, 0.001527, -0.000000, 0.016000, 0.976000, 2.557267, 2.789496, 49.445196, 0.021802, -0.033262, -1.040452

1497926238.125442, 0.025656, -0.021380, 0.002443, 0.032000, 0.016000, 0.976000, 2.542308, 2.787221, 49.446095, 0.022033, -0.033530, -1.042323

1497926238.139111, 0.028100, -0.019242, 0.002749, 0.032000, 0.016000, 0.976000, 2.547875, 2.769849, 49.446785, 0.022296, -0.033768, -1.044037

1497926238.152538, 0.027794, -0.019548, 0.003360, 0.016000, 0.000000, 0.960000, 2.552330, 2.755946, 49.447332, 0.022209, -0.033691, -1.043329

1497926238.166260, 0.025045, -0.020464, 0.002138, 0.016000, 0.016000, 0.976000, 2.555895, 2.744819, 49.447767, 0.022393, -0.033635, -1.039175

1497926238.180003, 0.021991, -0.019853, 0.002443, 0.016000, 0.016000, 0.976000, 2.560511, 2.787633, 49.445133, 0.022536, -0.033571, -1.035291

1497926238.193546, 0.020159, -0.017410, 0.000611, 0.032000, 0.000000, 0.960000, 2.564208, 2.821932, 49.442995, 0.022355, -0.033748, -1.039723

1497926238.207420, 0.021991, -0.016188, 0.000916, 0.016000, 0.016000, 0.976000, 2.567218, 2.832827, 49.442216, 0.022503, -0.033633, -1.036033

1497926238.220859, 0.028100, -0.018326, 0.001222, 0.016000, 0.016000, 0.976000, 2.569627, 2.841551, 49.441590, 0.022721, -0.033542, -1.032444

1497926238.234543, 0.027184, -0.018631, 0.002443, 0.016000, 0.000000, 0.976000, 2.571557, 2.848536, 49.441088, 0.022627, -0.033453, -1.032107

1497926238.248135, 0.027794, -0.019242, 0.003054, 0.016000, 0.016000, 1.008000, 2.602704, 2.750349, 49.445018, 0.022825, -0.033374, -1.027918

1497926238.261798, 0.029322, -0.023824, 0.004887, 0.016000, 0.016000, 1.008000, 2.627563, 2.671951, 49.448002, 0.023037, -0.033363, -1.023248

1497926238.275609, 0.022602, -0.018326, 0.005803, 0.016000, 0.000000, 0.992000, 2.617010, 2.695181, 49.447300, 0.022872, -0.033278, -1.022247

1497926238.289079, 0.027184, -0.016493, 0.004276, 0.016000, 0.000000, 0.960000, 2.608562, 2.713776, 49.446730, 0.022766, -0.033173, -1.021530

1497926238.302793, 0.025656, -0.019548, 0.001833, 0.016000, 0.000000, 0.960000, 2.599910, 2.710065, 49.447389, 0.022650, -0.033113, -1.020893

1497926238.316218, 0.026267, -0.017104, 0.003971, 0.016000, 0.000000, 0.960000, 2.642649, 2.706955, 49.445294, 0.022534, -0.033019, -1.020011

1497926238.329957, 0.027184, -0.019242, 0.001833, 0.016000, 0.000000, 0.960000, 2.676810, 2.704468, 49.443592, 0.022441, -0.032963, -1.018992

1497926238.343664, 0.025962, -0.015882, 0.003360, 0.016000, 0.016000, 0.992000, 2.653469, 2.718157, 49.444100, 0.022626, -0.032856, -1.014623

1497926238.357243, 0.033292, -0.017104, 0.002138, 0.016000, 0.000000, 0.976000, 2.634818, 2.729095, 49.444495, 0.022610, -0.032763, -1.013936

1497926238.371121, 0.023824, -0.016493, 0.000916, 0.016000, 0.000000, 0.976000, 2.655857, 2.757333, 49.441802, 0.022476, -0.032667, -1.013267

1497926238.384572, 0.021380, -0.018326, 0.002443, 0.016000, 0.000000, 0.976000, 2.672708, 2.779950, 49.439628, 0.022303, -0.032591, -1.012584

1497926238.398265, 0.022602, -0.015882, 0.004581, 0.016000, 0.016000, 0.976000, 2.686200, 2.798059, 49.437875, 0.022454, -0.032495, -1.008564

1497926238.411732, 0.024740, -0.014050, 0.005498, 0.016000, 0.016000, 0.976000, 2.646447, 2.778557, 49.441119, 0.022628, -0.032372, -1.004727

1497926238.425486, 0.025962, -0.021075, 0.003665, 0.032000, 0.000000, 0.960000, 2.614640, 2.762953, 49.443685, 0.022524, -0.032625, -1.009279

1497926238.439272, 0.027489, -0.019242, 0.003360, 0.016000, 0.016000, 1.008000, 2.587216, 2.764963, 49.445015, 0.022732, -0.032563, -1.005702

1497926238.452739, 0.028100, -0.018631, 0.002138, 0.016000, 0.016000, 1.008000, 2.565306, 2.766569, 49.446067, 0.022937, -0.032489, -1.002343

1497926238.466498, 0.025962, -0.019853, 0.006414, 0.016000, 0.000000, 0.976000, 2.547795, 2.767852, 49.446901, 0.022827, -0.032435, -1.002420

1497926238.479937, 0.024740, -0.017104, 0.004276, 0.016000, 0.000000, 0.976000, 2.485985, 2.804139, 49.448002, 0.022700, -0.032334, -1.002963

1497926238.493689, 0.023518, -0.017715, 0.003971, 0.032000, 0.032000, 1.008000, 2.436499, 2.833184, 49.448810, 0.023196, -0.032558, -1.002259

1497926238.507328, 0.026573, -0.021075, -0.001222, 0.032000, 0.000000, 0.992000, 2.412627, 2.822258, 49.450605, 0.023092, -0.032767, -1.008017

1497926238.520993, 0.028711, -0.017410, 0.004887, 0.032000, 0.000000, 0.992000, 2.393534, 2.813519, 49.452031, 0.023018, -0.032926, -1.013686

1497926238.534805, 0.022602, -0.019242, 0.005192, 0.016000, 0.016000, 0.976000, 2.378261, 2.806528, 49.453165, 0.023172, -0.032865, -1.011449

1497926238.548243, 0.025045, -0.018021, 0.003360, 0.032000, 0.016000, 0.976000, 2.414621, 2.849324, 49.448956, 0.023366, -0.033088, -1.015187

1497926238.561910, 0.024129, -0.018937, -0.000000, 0.032000, 0.016000, 0.976000, 2.443680, 2.883525, 49.445546, 0.023551, -0.033322, -1.018763

1497926238.575374, 0.025351, -0.017410, 0.002138, 0.016000, 0.000000, 0.976000, 2.450535, 2.861391, 49.446492, 0.023419, -0.033207, -1.019369

1497926238.589091, 0.023518, -0.016493, 0.002749, 0.032000, 0.016000, 0.992000, 2.456016, 2.843692, 49.447241, 0.023590, -0.033399, -1.022412

1497926238.602852, 0.025351, -0.020464, 0.003665, 0.032000, 0.016000, 0.992000, 2.460399, 2.829538, 49.447835, 0.023784, -0.033641, -1.025297

1497926238.616325, 0.025045, -0.015882, 0.005498, 0.032000, 0.016000, 0.992000, 2.464043, 2.768710, 49.451097, 0.023961, -0.033815, -1.027847

1497926238.630110, 0.028100, -0.020159, 0.003360, 0.032000, 0.016000, 0.992000, 2.466955, 2.720051, 49.453652, 0.024185, -0.034047, -1.030165

1497926238.643613, 0.023518, -0.018021, 0.000916, -0.000000, 0.000000, 0.976000, 2.501090, 2.779019, 49.448659, 0.023949, -0.033653, -1.026305

1497926238.657352, 0.028405, -0.019242, 0.005192, 0.016000, 0.032000, 0.976000, 2.528367, 2.826141, 49.444601, 0.024432, -0.033539, -1.017949

1497926238.671005, 0.025656, -0.021380, 0.001222, 0.016000, 0.032000, 0.976000, 2.550169, 2.863805, 49.441314, 0.024872, -0.033455, -1.009986

1497926238.684714, 0.026267, -0.018021, 0.002138, 0.032000, 0.032000, 0.976000, 2.522984, 2.849926, 49.443511, 0.025382, -0.033679, -1.008531

1497926238.698644, 0.023824, -0.018021, 0.001527, 0.032000, 0.000000, 0.976000, 2.501170, 2.838789, 49.445260, 0.025205, -0.033841, -1.013752

1497926238.712084, 0.025045, -0.017410, 0.001833, 0.032000, 0.000000, 0.976000, 2.513972, 2.826605, 49.445308, 0.025035, -0.033987, -1.018758

1497926238.725611, 0.025351, -0.024740, 0.005803, 0.016000, 0.000000, 0.960000, 2.524211, 2.816859, 49.445343, 0.024870, -0.033968, -1.018867

1497926238.739064, 0.021991, -0.021991, 0.003360, -0.000000, 0.000000, 0.992000, 2.532401, 2.809063, 49.445368, 0.024601, -0.033626, -1.015185

1497926238.752859, 0.023213, -0.019853, 0.001833, -0.000000, 0.000000, 0.992000, 2.539048, 2.769775, 49.447243, 0.024362, -0.033270, -1.011430

1497926238.766631, 0.025656, -0.019548, 0.002749, 0.032000, 0.000000, 0.992000, 2.544364, 2.738344, 49.448720, 0.024224, -0.033460, -1.015916

1497926238.780211, 0.026267, -0.018631, 0.004276, 0.032000, 0.000000, 0.992000, 2.548523, 2.746253, 49.448068, 0.024093, -0.033632, -1.020282

1497926238.794095, 0.027489, -0.019242, 0.004276, 0.032000, 0.000000, 0.976000, 2.551850, 2.752581, 49.447544, 0.023988, -0.033824, -1.024723

1497926238.807527, 0.025045, -0.020769, 0.004581, 0.016000, 0.000000, 0.960000, 2.554511, 2.757642, 49.447125, 0.023833, -0.033759, -1.024380

1497926238.821174, 0.027794, -0.020159, 0.005498, 0.016000, 0.000000, 0.960000, 2.508035, 2.746327, 49.450134, 0.023726, -0.033689, -1.024238

1497926238.834741, 0.027184, -0.018937, 0.004887, 0.016000, 0.000000, 0.976000, 2.470825, 2.737266, 49.452509, 0.023611, -0.033596, -1.024204

1497926238.848570, 0.024129, -0.016493, 0.004276, -0.000000, 0.016000, 0.992000, 2.488778, 2.744376, 49.451215, 0.023668, -0.033184, -1.016936

1497926238.862420, 0.026878, -0.021991, 0.002749, -0.000000, 0.016000, 0.992000, 2.503127, 2.750058, 49.450175, 0.023766, -0.032854, -1.009809

1497926238.875869, 0.024740, -0.017104, -0.001833, 0.032000, 0.000000, 0.960000, 2.514597, 2.754599, 49.449340, 0.023620, -0.033027, -1.014968

1497926238.889390, 0.027794, -0.018937, 0.002749, 0.032000, 0.000000, 0.976000, 2.508459, 2.660178, 49.454821, 0.023518, -0.033219, -1.019620

1497926238.902816, 0.021991, -0.016493, -0.000000, 0.032000, 0.000000, 0.976000, 2.503540, 2.584603, 49.459078, 0.023340, -0.033375, -1.024075

1497926238.916532, 0.026267, -0.018631, 0.002749, -0.000000, 0.032000, 0.992000, 2.534274, 2.625168, 49.455376, 0.023655, -0.032927, -1.011275

1497926238.930416, 0.024129, -0.017104, 0.001527, -0.000000, 0.032000, 0.992000, 2.558893, 2.657661, 49.452373, 0.023948, -0.032472, -0.998899

1497926238.943951, 0.024129, -0.016799, 0.005803, 0.016000, 0.000000, 0.960000, 2.528094, 2.649720, 49.454383, 0.023787, -0.032380, -0.998833

1497926238.957773, 0.023518, -0.019548, 0.006109, 0.016000, 0.016000, 1.008000, 2.503445, 2.643364, 49.455977, 0.023917, -0.032331, -0.995271

1497926238.971210, 0.025656, -0.021686, 0.007025, 0.016000, 0.016000, 1.008000, 2.483721, 2.638277, 49.457243, 0.024064, -0.032304, -0.991858

1497926238.984836, 0.024129, -0.016493, 0.003360, 0.016000, 0.016000, 0.976000, 2.515690, 2.648658, 49.455072, 0.024205, -0.032221, -0.988440

1497926238.998382, 0.028405, -0.019242, 0.002749, 0.016000, 0.000000, 0.992000, 2.541232, 2.656952, 49.453322, 0.024097, -0.032155, -0.988439

1497926239.012100, 0.026878, -0.018631, -0.000305, 0.016000, 0.000000, 0.992000, 2.495627, 2.630703, 49.457047, 0.023978, -0.032083, -0.988631

1497926239.025968, 0.025962, -0.015577, 0.005192, 0.016000, 0.000000, 0.992000, 2.459165, 2.609715, 49.459985, 0.023852, -0.031973, -0.988868

1497926239.039441, 0.023213, -0.018937, 0.001833, -0.000000, 0.000000, 0.976000, 2.430009, 2.592931, 49.462309, 0.023627, -0.031626, -0.985420

1497926239.052989, 0.024129, -0.019242, 0.001833, -0.000000, 0.000000, 0.976000, 2.456076, 2.645453, 49.458240, 0.023425, -0.031289, -0.982134

1497926239.066407, 0.029016, -0.019548, 0.001527, 0.032000, 0.000000, 0.976000, 2.476916, 2.687445, 49.454937, 0.023337, -0.031511, -0.987733

1497926239.080051, 0.029322, -0.018937, -0.000000, 0.032000, 0.000000, 0.976000, 2.478170, 2.656022, 49.456572, 0.023262, -0.031726, -0.993164

1497926239.093863, 0.022602, -0.020159, -0.000305, -0.000000, -0.016000, 0.992000, 2.479174, 2.630871, 49.457866, 0.022766, -0.031384, -0.992192

1497926239.107416, 0.027794, -0.017715, 0.003054, 0.016000, 0.000000, 0.976000, 2.479976, 2.610741, 49.458892, 0.022680, -0.031318, -0.992350

1497926239.121325, 0.028711, -0.018631, 0.006720, 0.016000, 0.000000, 0.976000, 2.497938, 2.645148, 49.456160, 0.022616, -0.031273, -0.992475

1497926239.134754, 0.023824, -0.018631, 0.003971, 0.032000, 0.016000, 0.992000, 2.512318, 2.672693, 49.453951, 0.022798, -0.031530, -0.994909

1497926239.148518, 0.026878, -0.022602, 0.001833, 0.016000, 0.000000, 0.976000, 2.569571, 2.707113, 49.449137, 0.022704, -0.031533, -0.994883

1497926239.162008, 0.027794, -0.019242, 0.003360, 0.016000, 0.000000, 0.976000, 2.615264, 2.734583, 49.445229, 0.022615, -0.031487, -0.994693

1497926239.175648, 0.024740, -0.018021, 0.002749, 0.016000, 0.000000, 0.992000, 2.651750, 2.756515, 49.442068, 0.022490, -0.031425, -0.994339

1497926239.189466, 0.029932, -0.017410, 0.003971, 0.016000, 0.000000, 0.976000, 2.632515, 2.758735, 49.442972, 0.022443, -0.031363, -0.994144

1497926239.202922, 0.024129, -0.014050, 0.002443, 0.016000, 0.000000, 0.976000, 2.617133, 2.760509, 49.443690, 0.022311, -0.031250, -0.994057

1497926239.216643, 0.027184, -0.018631, 0.001833, 0.016000, 0.016000, 0.976000, 2.606811, 2.747492, 49.444960, 0.022532, -0.031215, -0.990619

1497926239.230091, 0.024435, -0.020159, 0.002138, 0.016000, 0.016000, 1.008000, 2.598544, 2.737066, 49.445974, 0.022695, -0.031187, -0.987229

1497926239.243841, 0.025656, -0.018326, 0.003360, 0.016000, 0.016000, 1.008000, 2.591924, 2.728718, 49.446782, 0.022878, -0.031141, -0.983883

1497926239.257506, 0.030238, -0.021686, 0.007025, 0.016000, 0.032000, 0.960000, 2.571981, 2.740623, 49.447165, 0.023425, -0.031106, -0.975288

1497926239.271145, 0.028100, -0.025045, 0.002749, 0.016000, 0.032000, 0.960000, 2.555996, 2.750164, 49.447465, 0.023936, -0.031118, -0.967086

1497926239.284958, 0.021991, -0.018326, 0.005192, 0.032000, 0.016000, 0.960000, 2.573449, 2.738115, 49.447228, 0.024083, -0.031401, -0.970103

1497926239.298387, 0.022602, -0.017410, 0.004276, 0.032000, 0.016000, 0.960000, 2.587400, 2.728483, 49.447032, 0.024229, -0.031658, -0.972915

1497926239.312020, 0.030849, -0.018937, 0.002443, 0.032000, 0.016000, 0.960000, 2.598553, 2.720782, 49.446872, 0.024487, -0.031935, -0.975569

1497926239.325454, 0.025656, -0.022602, 0.001527, 0.032000, 0.016000, 0.976000, 2.589857, 2.763173, 49.444977, 0.024662, -0.032238, -0.978261

1497926239.339230, 0.024740, -0.021686, 0.001527, 0.016000, 0.016000, 0.960000, 2.582907, 2.797046, 49.443436, 0.024815, -0.032231, -0.975538

1497926239.353025, 0.024435, -0.019548, 0.000611, 0.016000, 0.016000, 0.960000, 2.544471, 2.791244, 49.445757, 0.024963, -0.032195, -0.973072

1497926239.366492, 0.020464, -0.019853, 0.001527, 0.016000, 0.000000, 0.960000, 2.513740, 2.786604, 49.447591, 0.024742, -0.032134, -0.974109

1497926239.380338, 0.024129, -0.021686, -0.000916, 0.016000, 0.016000, 0.992000, 2.489167, 2.782893, 49.449043, 0.024880, -0.032118, -0.971950

1497926239.393765, 0.024129, -0.023824, 0.001527, 0.016000, 0.016000, 0.992000, 2.471301, 2.798475, 49.449059, 0.025007, -0.032121, -0.969984

1497926239.407406, 0.026878, -0.022602, 0.003054, 0.016000, 0.016000, 0.960000, 2.456993, 2.810952, 49.449065, 0.025185, -0.032122, -0.968210

1497926239.421067, 0.027794, -0.021380, 0.002138, 0.016000, 0.016000, 0.960000, 2.494176, 2.803261, 49.447640, 0.025371, -0.032109, -0.966224

1497926239.434899, 0.031154, -0.019853, 0.001527, 0.016000, 0.000000, 0.960000, 2.523919, 2.797108, 49.446479, 0.025294, -0.032055, -0.967377

1497926239.448726, 0.022297, -0.019242, 0.001833, 0.032000, 0.000000, 0.960000, 2.547711, 2.792185, 49.445537, 0.025090, -0.032268, -0.973198

1497926239.462181, 0.031765, -0.021075, 0.005192, 0.032000, 0.000000, 0.960000, 2.516462, 2.737890, 49.450173, 0.025007, -0.032496, -0.978950

1497926239.475709, 0.028405, -0.017715, -0.000916, 0.032000, 0.000000, 0.976000, 2.491473, 2.694473, 49.453823, 0.024887, -0.032666, -0.984562

1497926239.489190, 0.027184, -0.019242, 0.001222, 0.016000, 0.016000, 0.976000, 2.507113, 2.712132, 49.452068, 0.025053, -0.032608, -0.981708

1497926239.502907, 0.026573, -0.020769, 0.003971, 0.016000, 0.016000, 0.976000, 2.519643, 2.726279, 49.450653, 0.025213, -0.032577, -0.978875

1497926239.516705, 0.022602, -0.019548, 0.002443, 0.048000, 0.016000, 0.976000, 2.529679, 2.737611, 49.449514, 0.025259, -0.033117, -0.989690

1497926239.530209, 0.026267, -0.017104, 0.003360, -0.000000, 0.016000, 0.976000, 2.486279, 2.744784, 49.451318, 0.025322, -0.032717, -0.983073

1497926239.543983, 0.022907, -0.014355, 0.002443, -0.000000, 0.016000, 0.976000, 2.451573, 2.750517, 49.452732, 0.025352, -0.032291, -0.976764

1497926239.557438, 0.023518, -0.018631, 0.003665, 0.064000, 0.016000, 1.024000, 2.492692, 2.741466, 49.451179, 0.025218, -0.033015, -0.994501

1497926239.571148, 0.025351, -0.022602, 0.002749, 0.064000, 0.016000, 1.024000, 2.525639, 2.734211, 49.449909, 0.025133, -0.033790, -1.011608

1497926239.584752, 0.026267, -0.022602, 0.004887, 0.032000, 0.000000, 1.008000, 2.552030, 2.728399, 49.448875, 0.024985, -0.033999, -1.015826

1497926239.598573, 0.029627, -0.018937, 0.003054, 0.016000, 0.000000, 0.960000, 2.552615, 2.785861, 49.445641, 0.024885, -0.033910, -1.015781

1497926239.612468, 0.023213, -0.019853, -0.000000, 0.016000, 0.000000, 0.960000, 2.553080, 2.831738, 49.443011, 0.024705, -0.033833, -1.015922

1497926239.625932, 0.024740, -0.019548, 0.001833, 0.032000, 0.000000, 0.992000, 2.588480, 2.837388, 49.440846, 0.024542, -0.034007, -1.020267

1497926239.639456, 0.023518, -0.016188, 0.001833, 0.016000, 0.016000, 0.976000, 2.616801, 2.841908, 49.439096, 0.024660, -0.033885, -1.016723

1497926239.652902, 0.022602, -0.019548, 0.006109, 0.016000, 0.016000, 0.976000, 2.655974, 2.845472, 49.436802, 0.024759, -0.033811, -1.012999

1497926239.666577, 0.025351, -0.018021, 0.005498, 0.016000, 0.016000, 0.992000, 2.687312, 2.848322, 49.434944, 0.024891, -0.033718, -1.009196

1497926239.680384, 0.028711, -0.019548, 0.000916, 0.032000, 0.016000, 0.976000, 2.712382, 2.850601, 49.433443, 0.025110, -0.033957, -1.010608

1497926239.693976, 0.024129, -0.018021, 0.001527, 0.032000, 0.016000, 0.976000, 2.665288, 2.884588, 49.434033, 0.025258, -0.034166, -1.012479

1497926239.707777, 0.024740, -0.017104, 0.003360, 0.016000, 0.000000, 0.976000, 2.627632, 2.911759, 49.434456, 0.025086, -0.034043, -1.012444

1497926239.721235, 0.022297, -0.021686, 0.003054, 0.016000, 0.000000, 0.976000, 2.596659, 2.899411, 49.436819, 0.024879, -0.033975, -1.012532

1497926239.734882, 0.025351, -0.018021, 0.002749, 0.016000, 0.000000, 0.992000, 2.571903, 2.889541, 49.438691, 0.024720, -0.033858, -1.012648

1497926239.748529, 0.024129, -0.019548, 0.005498, 0.016000, 0.016000, 1.008000, 2.552114, 2.881651, 49.440177, 0.024839, -0.033775, -1.009738

1497926239.762233, 0.029016, -0.016493, 0.003665, 0.016000, 0.016000, 1.008000, 2.535401, 2.857806, 49.442421, 0.025023, -0.033653, -1.006891

1497926239.776142, 0.029016, -0.019853, 0.001527, 0.032000, 0.000000, 0.960000, 2.522046, 2.838751, 49.444201, 0.024922, -0.033851, -1.012185

1497926239.789757, 0.024740, -0.018326, 0.000611, 0.016000, -0.016000, 0.976000, 2.479266, 2.857587, 49.445280, 0.024449, -0.033694, -1.014805

1497926239.803614, 0.023213, -0.018937, 0.001222, 0.016000, -0.016000, 0.976000, 2.445043, 2.872654, 49.446111, 0.023972, -0.033550, -1.017550

1497926239.817449, 0.023824, -0.016188, 0.002749, 0.016000, 0.000000, 0.992000, 2.417666, 2.884705, 49.446756, 0.023822, -0.033412, -1.018346

1497926239.831053, 0.025351, -0.019242, 0.004276, 0.016000, 0.000000, 1.008000, 2.462556, 2.895228, 49.443925, 0.023686, -0.033313, -1.018837

1497926239.845010, 0.025962, -0.021686, 0.004276, 0.016000, 0.000000, 1.008000, 2.498485, 2.903649, 49.441629, 0.023569, -0.033257, -1.019159

1497926239.858611, 0.026878, -0.019853, 0.001833, 0.032000, 0.016000, 0.976000, 2.510808, 2.893965, 49.441572, 0.023785, -0.033502, -1.022113

1497926239.872379, 0.023824, -0.021380, 0.004276, 0.016000, 0.016000, 0.992000, 2.520670, 2.886215, 49.441524, 0.023927, -0.033456, -1.019241

1497926239.886344, 0.024435, -0.020159, 0.003054, 0.016000, 0.016000, 0.992000, 2.528563, 2.880013, 49.441482, 0.024080, -0.033398, -1.016368

1497926239.899944, 0.025351, -0.016799, 0.002749, 0.016000, 0.000000, 0.976000, 2.556201, 2.847317, 49.441955, 0.023936, -0.033281, -1.016422

1497926239.913874, 0.026878, -0.017715, 0.002138, 0.016000, 0.000000, 0.976000, 2.578389, 2.821066, 49.442307, 0.023822, -0.033187, -1.016287

1497926239.927765, 0.025962, -0.016188, 0.002749, 0.016000, 0.000000, 0.976000, 2.574831, 2.794846, 49.443982, 0.023697, -0.033074, -1.016081

1497926239.941342, 0.029016, -0.017410, 0.001222, 0.016000, 0.016000, 1.008000, 2.571987, 2.773892, 49.445310, 0.023896, -0.032977, -1.012525

1497926239.955353, 0.021075, -0.017715, 0.002138, 0.016000, 0.016000, 1.008000, 2.569713, 2.757141, 49.446365, 0.023994, -0.032894, -1.008957

1497926239.968964, 0.023518, -0.019548, 0.005498, 0.048000, 0.016000, 0.992000, 2.568753, 2.777808, 49.445258, 0.024081, -0.033422, -1.018367

1497926239.982868, 0.022297, -0.017715, 0.001527, 0.048000, 0.000000, 0.992000, 2.567985, 2.794343, 49.444366, 0.023841, -0.033840, -1.028149

1497926239.996809, 0.028100, -0.019853, 0.002138, 0.048000, 0.000000, 0.992000, 2.568373, 2.792089, 49.444474, 0.023690, -0.034283, -1.037723

1497926240.010399, 0.030849, -0.017715, 0.003665, 0.016000, 0.000000, 0.976000, 2.568684, 2.790285, 49.444559, 0.023620, -0.034169, -1.037093

1497926240.024253, 0.020769, -0.016493, 0.002443, 0.032000, 0.000000, 0.976000, 2.551682, 2.705191, 49.450168, 0.023433, -0.034319, -1.041117

1497926240.038209, 0.021686, -0.018631, 0.001222, 0.032000, 0.000000, 0.976000, 2.538074, 2.637110, 49.454546, 0.023266, -0.034498, -1.045012

1497926240.051794, 0.026267, -0.020159, 0.001222, 0.016000, 0.000000, 0.992000, 2.527184, 2.582640, 49.457978, 0.023138, -0.034414, -1.043713

1497926240.065826, 0.027489, -0.017410, 0.002749, 0.032000, 0.016000, 0.976000, 2.548474, 2.618743, 49.454987, 0.023381, -0.034618, -1.044759

1497926240.079449, 0.031460, -0.018326, -0.000000, 0.032000, 0.016000, 0.976000, 2.565466, 2.647559, 49.452574, 0.023663, -0.034822, -1.045802

1497926240.093315, 0.028711, -0.018021, 0.002138, 0.016000, 0.000000, 0.976000, 2.514117, 2.638756, 49.455682, 0.023570, -0.034710, -1.044811

1497926240.107226, 0.023824, -0.019548, 0.004581, -0.000000, 0.000000, 0.960000, 2.473059, 2.631715, 49.458127, 0.023345, -0.034340, -1.040178

1497926240.120841, 0.021991, -0.018326, 0.001222, -0.000000, 0.000000, 0.960000, 2.440226, 2.626083, 49.460057, 0.023098, -0.033951, -1.035795

1497926240.134619, 0.019242, -0.019853, 0.000916, 0.032000, 0.000000, 0.976000, 2.396508, 2.653607, 49.460726, 0.022902, -0.034139, -1.040810

1497926240.148554, 0.025962, -0.018937, 0.002443, 0.032000, 0.000000, 0.976000, 2.361567, 2.675601, 49.461221, 0.022804, -0.034312, -1.045988

1497926240.162163, 0.027489, -0.021075, 0.003971, 0.016000, 0.000000, 0.960000, 2.382115, 2.708513, 49.458445, 0.022713, -0.034240, -1.045996

1497926240.176074, 0.027184, -0.019853, 0.004276, -0.000000, 0.016000, 0.960000, 2.398528, 2.734804, 49.456205, 0.022836, -0.033858, -1.038470

1497926240.189722, 0.029016, -0.018326, 0.002749, -0.000000, 0.016000, 0.960000, 2.411644, 2.755812, 49.454401, 0.022980, -0.033458, -1.031169

1497926240.203494, 0.021380, -0.017410, 0.003665, 0.048000, 0.048000, 0.960000, 2.455173, 2.706795, 49.454966, 0.023692, -0.034174, -1.043457

1497926240.217536, 0.022297, -0.015577, 0.003665, -0.000000, 0.016000, 0.992000, 2.489971, 2.667604, 49.455356, 0.023713, -0.033745, -1.035417

1497926240.231110, 0.025656, -0.017715, 0.002138, -0.000000, 0.016000, 0.992000, 2.522270, 2.706957, 49.451580, 0.023775, -0.033345, -1.027638

1497926240.244837, 0.019853, -0.018937, 0.001527, -0.000000, 0.016000, 0.960000, 2.548179, 2.738525, 49.448514, 0.023774, -0.032969, -1.019950

1497926240.258789, 0.028711, -0.019548, 0.004581, 0.032000, 0.000000, 0.976000, 2.568952, 2.763834, 49.446031, 0.023692, -0.033181, -1.024307

1497926240.272386, 0.026878, -0.020159, 0.000611, 0.032000, 0.000000, 0.976000, 2.532336, 2.780133, 49.447006, 0.023580, -0.033388, -1.028904

1497926240.286152, 0.027489, -0.017410, 0.004581, 0.016000, 0.016000, 0.992000, 2.503077, 2.793156, 49.447762, 0.023772, -0.033292, -1.025542

1497926240.299903, 0.024129, -0.018326, 0.002443, 0.016000, 0.016000, 0.960000, 2.465189, 2.756271, 49.451735, 0.023928, -0.033220, -1.022339

1497926240.313572, 0.022907, -0.017715, 0.002749, 0.016000, 0.016000, 0.960000, 2.434855, 2.726739, 49.454875, 0.024064, -0.033139, -1.019229

1497926240.327685, 0.029627, -0.016188, -0.000305, 0.032000, 0.016000, 0.992000, 2.411334, 2.753572, 49.454541, 0.024317, -0.033332, -1.022376

1497926240.341273, 0.027794, -0.019242, 0.001527, 0.032000, 0.016000, 0.992000, 2.475001, 2.774831, 49.450207, 0.024525, -0.033556, -1.024969

1497926240.355194, 0.029322, -0.017104, 0.004276, 0.016000, 0.016000, 0.976000, 2.525965, 2.791847, 49.446672, 0.024732, -0.033462, -1.021562

1497926240.369163, 0.027794, -0.016799, 0.002749, 0.016000, 0.000000, 0.976000, 2.549354, 2.787975, 49.445690, 0.024615, -0.033353, -1.021358

1497926240.382780, 0.028405, -0.017410, 0.000305, 0.016000, 0.000000, 0.976000, 2.568061, 2.784878, 49.444896, 0.024500, -0.033250, -1.021087

1497926240.396546, 0.025045, -0.018937, 0.002749, 0.016000, 0.016000, 0.976000, 2.581060, 2.796820, 49.443546, 0.024645, -0.033185, -1.017490

1497926240.410410, 0.026267, -0.018631, 0.001222, 0.016000, 0.000000, 0.992000, 2.591444, 2.806358, 49.442462, 0.024506, -0.033101, -1.017167

1497926240.424037, 0.026878, -0.020464, 0.003971, 0.016000, 0.000000, 0.992000, 2.599741, 2.813980, 49.441593, 0.024371, -0.033040, -1.016798

1497926240.438120, 0.027794, -0.018631, 0.003054, 0.016000, -0.016000, 0.992000, 2.572651, 2.769775, 49.445506, 0.023959, -0.032923, -1.018596

1497926240.451721, 0.025962, -0.016493, 0.002749, 0.016000, 0.000000, 0.960000, 2.551003, 2.734453, 49.448594, 0.023823, -0.032821, -1.018340

1497926240.465617, 0.025045, -0.014355, 0.002749, 0.016000, 0.000000, 0.960000, 2.551886, 2.757523, 49.447267, 0.023685, -0.032696, -1.018160

1497926240.479577, 0.032376, -0.022602, 0.002749, 0.016000, 0.000000, 0.976000, 2.552592, 2.775986, 49.446197, 0.023652, -0.032682, -1.017971

1497926240.493176, 0.023518, -0.019548, 0.000916, 0.032000, 0.016000, 0.960000, 2.553156, 2.790761, 49.445337, 0.023825, -0.032947, -1.020409

1497926240.507075, 0.022907, -0.020464, 0.001527, 0.032000, 0.016000, 0.960000, 2.521629, 2.803717, 49.446222, 0.023994, -0.033223, -1.023104

1497926240.520868, 0.027489, -0.020464, 0.004581, 0.016000, 0.016000, 0.992000, 2.496383, 2.814090, 49.446913, 0.024181, -0.033172, -1.020002

1497926240.534453, 0.024435, -0.020159, 0.002443, 0.016000, 0.016000, 0.992000, 2.490895, 2.787339, 49.448705, 0.024318, -0.033114, -1.016891

1497926240.548441, 0.025962, -0.021686, -0.000611, -0.000000, 0.000000, 1.024000, 2.486507, 2.765953, 49.450127, 0.024131, -0.032793, -1.013330

1497926240.562040, 0.023518, -0.021075, 0.003665, -0.000000, 0.016000, 0.976000, 2.482998, 2.748854, 49.451257, 0.024176, -0.032453, -1.006271

1497926240.575908, 0.027489, -0.020464, 0.005192, -0.000000, 0.016000, 0.976000, 2.432542, 2.770263, 49.452570, 0.024287, -0.032116, -0.999637

1497926240.589874, 0.030238, -0.022602, 0.004276, 0.016000, 0.000000, 0.960000, 2.392136, 2.787406, 49.453577, 0.024223, -0.032103, -1.000759

1497926240.603474, 0.025045, -0.021075, 0.003360, 0.048000, 0.000000, 0.960000, 2.394609, 2.770147, 49.454427, 0.023982, -0.032589, -1.012685

1497926240.617421, 0.025045, -0.018021, 0.002443, 0.048000, 0.000000, 0.960000, 2.396591, 2.756313, 49.455104, 0.023759, -0.033034, -1.024372

1497926240.631271, 0.026878, -0.018937, 0.002138, 0.032000, 0.000000, 0.976000, 2.398180, 2.745228, 49.455644, 0.023652, -0.033223, -1.029766

1497926240.644875, 0.028405, -0.018937, 0.004581, 0.032000, 0.016000, 0.992000, 2.399452, 2.736349, 49.456074, 0.023880, -0.033445, -1.032680

1497926240.658922, 0.028711, -0.018631, 0.002443, 0.032000, 0.016000, 0.992000, 2.400471, 2.729238, 49.456418, 0.024122, -0.033667, -1.035528

1497926240.672489, 0.024435, -0.018021, 0.000611, 0.016000, 0.000000, 0.992000, 2.416030, 2.721476, 49.456088, 0.023964, -0.033556, -1.035498

1497926240.686275, 0.029322, -0.015882, 0.001222, 0.016000, 0.016000, 0.960000, 2.428468, 2.715270, 49.455820, 0.024186, -0.033447, -1.032124

1497926240.700797, 0.025351, -0.019548, 0.002138, 0.016000, 0.016000, 0.960000, 2.422794, 2.711360, 49.456313, 0.024368, -0.033403, -1.028818

1497926240.714391, 0.025656, -0.018937, 0.002749, -0.000000, 0.000000, 0.992000, 2.418254, 2.708232, 49.456706, 0.024161, -0.033036, -1.025040

1497926240.728329, 0.027489, -0.015577, 0.004581, 0.032000, 0.000000, 0.976000, 2.414621, 2.705728, 49.457021, 0.024055, -0.033182, -1.030198

1497926240.742235, 0.025962, -0.015577, 0.000305, 0.032000, 0.000000, 0.976000, 2.425539, 2.700669, 49.456763, 0.023932, -0.033326, -1.035227

1497926240.755846, 0.021075, -0.016799, -0.000000, 0.016000, 0.000000, 0.944000, 2.434256, 2.696629, 49.456555, 0.023735, -0.033222, -1.035253

1497926240.769880, 0.029016, -0.017715, 0.001527, 0.016000, 0.000000, 0.944000, 2.440359, 2.675927, 49.457379, 0.023658, -0.033142, -1.035156

1497926240.783357, 0.029627, -0.018937, 0.004887, 0.032000, 0.000000, 0.944000, 2.445231, 2.659396, 49.458030, 0.023575, -0.033348, -1.040186

1497926240.797126, 0.027184, -0.020159, 0.000916, -0.000000, 0.016000, 0.976000, 2.449123, 2.646191, 49.458546, 0.023669, -0.032991, -1.032231

1497926240.810901, 0.034819, -0.019242, 0.003971, -0.000000, 0.016000, 0.976000, 2.453097, 2.653065, 49.457980, 0.023867, -0.032630, -1.024415

1497926240.824404, 0.029016, -0.020769, 0.002443, 0.016000, 0.000000, 0.976000, 2.456275, 2.658563, 49.457527, 0.023772, -0.032583, -1.024230

1497926240.838185, 0.022602, -0.014966, 0.003665, -0.000000, -0.016000, 0.960000, 2.476135, 2.680352, 49.455361, 0.023245, -0.032162, -1.022799

1497926240.851636, 0.025962, -0.019242, 0.002138, -0.000000, -0.016000, 0.960000, 2.492029, 2.697791, 49.453614, 0.022767, -0.031800, -1.021407

1497926240.865333, 0.025962, -0.018326, 0.001833, 0.016000, 0.000000, 0.976000, 2.504747, 2.711745, 49.452209, 0.022658, -0.031740, -1.021206

1497926240.878945, 0.026573, -0.015577, 0.002443, 0.032000, 0.000000, 0.976000, 2.481088, 2.721995, 49.452838, 0.022558, -0.031914, -1.026055

1497926240.892695, 0.024740, -0.017410, 0.005803, 0.032000, 0.000000, 0.976000, 2.462169, 2.730191, 49.453332, 0.022439, -0.032113, -1.030905

1497926240.906505, 0.029016, -0.019242, 0.002749, 0.016000, 0.000000, 0.960000, 2.464443, 2.721262, 49.453711, 0.022381, -0.032066, -1.030820

1497926240.919964, 0.023518, -0.016799, 0.003360, -0.048000, 0.000000, 0.960000, 2.466263, 2.714115, 49.454013, 0.021827, -0.030801, -1.020200

1497926240.933694, 0.033903, -0.018326, 0.002749, -0.000000, 0.000000, 0.960000, 2.467720, 2.708396, 49.454254, 0.021789, -0.030475, -1.016394

1497926240.947131, 0.028711, -0.018021, 0.003054, 0.016000, 0.032000, 0.960000, 2.471495, 2.756256, 49.451421, 0.022335, -0.030395, -1.007872

1497926240.960745, 0.021686, -0.019242, 0.003360, 0.016000, 0.032000, 0.960000, 2.474519, 2.794623, 49.449116, 0.022785, -0.030339, -0.999816

1497926240.974418, 0.020769, -0.019242, 0.000916, 0.016000, 0.032000, 0.976000, 2.439626, 2.737861, 49.454025, 0.023205, -0.030284, -0.991830

1497926240.987892, 0.024740, -0.015882, 0.004887, 0.016000, 0.016000, 0.992000, 2.411757, 2.692527, 49.457881, 0.023371, -0.030221, -0.989240

1497926241.001539, 0.026267, -0.017715, 0.004581, 0.016000, 0.016000, 0.992000, 2.389491, 2.656309, 49.460920, 0.023558, -0.030187, -0.986653

1497926241.014970, 0.030849, -0.019242, 0.003360, 0.032000, 0.000000, 0.976000, 2.422752, 2.662101, 49.458991, 0.023488, -0.030425, -0.992454

1497926241.028555, 0.026267, -0.019853, 0.004887, 0.016000, 0.000000, 0.976000, 2.449368, 2.666735, 49.457430, 0.023370, -0.030403, -0.992940

1497926241.042276, 0.024740, -0.019548, 0.003054, 0.016000, 0.000000, 0.976000, 2.471490, 2.704364, 49.454286, 0.023238, -0.030381, -0.993446

1497926241.055849, 0.021991, -0.019242, 0.003360, 0.048000, 0.016000, 0.976000, 2.489201, 2.734489, 49.451741, 0.023296, -0.030965, -1.004375

1497926241.069702, 0.024435, -0.019853, 0.002138, 0.048000, 0.032000, 0.992000, 2.503377, 2.758603, 49.449686, 0.023724, -0.031617, -1.013812

1497926241.083147, 0.022297, -0.018021, 0.004581, 0.032000, 0.032000, 0.992000, 2.483966, 2.648116, 49.456705, 0.024187, -0.031856, -1.010889

1497926241.096736, 0.026573, -0.014661, 0.003054, 0.016000, 0.016000, 0.976000, 2.468396, 2.559535, 49.462148, 0.024353, -0.031760, -1.006878

1497926241.110342, 0.028711, -0.019853, 0.002443, 0.016000, 0.016000, 0.976000, 2.472053, 2.637229, 49.457884, 0.024550, -0.031733, -1.003370

1497926241.123951, 0.025656, -0.017715, 0.000305, 0.016000, 0.000000, 0.960000, 2.474977, 2.699442, 49.454381, 0.024404, -0.031663, -1.003741

1497926241.137681, 0.026878, -0.017715, 0.000916, 0.032000, 0.016000, 0.976000, 2.476531, 2.698651, 49.454346, 0.024604, -0.031912, -1.006582

1497926241.151148, 0.022907, -0.022297, 0.003665, 0.032000, 0.016000, 0.976000, 2.444714, 2.698108, 49.455959, 0.024740, -0.032212, -1.009611

1497926241.164767, 0.026573, -0.020159, 0.002138, -0.000000, 0.032000, 0.960000, 2.419258, 2.697672, 49.457234, 0.025070, -0.031808, -0.997574

1497926241.178229, 0.024435, -0.018631, 0.000916, 0.016000, 0.016000, 0.976000, 2.430918, 2.745797, 49.454014, 0.025200, -0.031757, -0.995093

1497926241.191801, 0.027794, -0.018631, 0.002749, 0.016000, 0.016000, 0.976000, 2.440237, 2.784265, 49.451404, 0.025375, -0.031708, -0.992774

1497926241.205493, 0.030238, -0.020159, 0.006414, 0.032000, 0.000000, 0.944000, 2.445963, 2.779939, 49.451365, 0.025269, -0.031946, -0.998856

1497926241.219053, 0.025045, -0.018021, 0.001833, 0.032000, 0.000000, 0.944000, 2.450535, 2.776483, 49.451332, 0.025094, -0.032150, -1.004841

1497926241.232787, 0.026878, -0.019853, 0.002443, 0.048000, 0.032000, 0.976000, 2.454187, 2.773723, 49.451306, 0.025516, -0.032788, -1.015777

1497926241.246226, 0.025962, -0.020159, 0.001222, 0.016000, 0.000000, 0.976000, 2.490969, 2.772452, 49.449538, 0.025348, -0.032724, -1.015968

1497926241.259803, 0.024740, -0.017104, 0.003971, 0.016000, 0.000000, 0.976000, 2.520385, 2.771435, 49.448105, 0.025169, -0.032625, -1.015959

1497926241.273388, 0.029322, -0.019242, 0.001222, 0.032000, 0.000000, 0.976000, 2.494727, 2.688407, 49.453989, 0.025059, -0.032825, -1.020767

1497926241.286988, 0.022297, -0.013439, 0.000916, 0.016000, 0.016000, 0.976000, 2.474194, 2.621975, 49.458587, 0.025151, -0.032693, -1.016903

1497926241.300743, 0.022907, -0.015882, 0.004276, 0.016000, 0.016000, 0.976000, 2.457763, 2.568822, 49.462196, 0.025252, -0.032601, -1.012874

1497926241.314209, 0.026878, -0.017104, 0.006109, 0.016000, 0.048000, 0.992000, 2.444490, 2.575732, 49.462494, 0.025888, -0.032319, -0.994744

1497926241.327817, 0.029627, -0.021686, 0.006720, 0.016000, 0.016000, 0.976000, 2.433872, 2.581259, 49.462730, 0.026065, -0.032309, -0.991344

1497926241.341255, 0.027184, -0.021991, 0.005192, 0.016000, 0.016000, 0.976000, 2.445435, 2.605976, 49.460863, 0.026202, -0.032298, -0.988100

1497926241.354858, 0.021991, -0.019242, 0.002749, 0.032000, 0.000000, 0.992000, 2.454709, 2.625800, 49.459355, 0.025974, -0.032485, -0.993402

1497926241.368644, 0.025351, -0.019853, 0.001222, 0.032000, 0.000000, 0.992000, 2.462143, 2.641692, 49.458140, 0.025801, -0.032682, -0.998603

1497926241.382195, 0.022907, -0.016799, 0.000305, 0.032000, 0.000000, 0.944000, 2.465214, 2.701037, 49.454781, 0.025590, -0.032855, -1.004369

1497926241.395920, 0.026267, -0.021991, 0.001222, 0.032000, 0.000000, 0.992000, 2.467666, 2.748474, 49.452045, 0.025436, -0.033074, -1.009544

1497926241.409382, 0.025962, -0.021991, -0.000000, 0.032000, 0.000000, 0.992000, 2.489143, 2.706812, 49.453267, 0.025275, -0.033286, -1.014400

1497926241.422992, 0.026878, -0.019548, 0.002138, 0.032000, 0.000000, 0.960000, 2.506351, 2.673426, 49.454214, 0.025130, -0.033486, -1.019299

1497926241.436587, 0.026573, -0.016799, 0.004581, 0.016000, 0.000000, 0.976000, 2.520134, 2.646681, 49.454952, 0.024976, -0.033375, -1.018801

1497926241.450189, 0.023518, -0.019548, 0.000916, 0.016000, 0.000000, 0.976000, 2.562338, 2.639768, 49.453153, 0.024784, -0.033305, -1.018115

1497926241.463917, 0.025962, -0.019548, 0.002443, 0.016000, 0.016000, 0.976000, 2.596079, 2.634239, 49.451688, 0.024928, -0.033250, -1.013646

1497926241.477390, 0.028100, -0.019853, 0.003665, 0.048000, 0.000000, 0.960000, 2.572395, 2.662051, 49.451436, 0.024726, -0.033712, -1.023999

1497926241.490955, 0.024435, -0.021075, 0.000916, 0.048000, 0.000000, 0.960000, 2.553466, 2.684276, 49.451216, 0.024486, -0.034184, -1.034329

1497926241.504414, 0.024740, -0.018937, 0.003054, 0.032000, 0.000000, 0.976000, 2.538334, 2.702042, 49.451027, 0.024327, -0.034355, -1.038484

1497926241.518033, 0.020464, -0.018326, 0.002138, 0.032000, 0.000000, 0.976000, 2.524407, 2.697724, 49.451976, 0.024118, -0.034519, -1.042650

1497926241.531678, 0.027184, -0.020464, 0.005803, 0.016000, 0.000000, 0.976000, 2.513285, 2.694276, 49.452730, 0.023990, -0.034440, -1.041867

1497926241.545158, 0.028711, -0.019548, 0.003665, 0.016000, 0.000000, 0.976000, 2.488752, 2.725536, 49.452258, 0.023884, -0.034344, -1.041363

1497926241.558856, 0.028405, -0.018326, 0.003665, 0.016000, 0.000000, 0.976000, 2.469134, 2.750529, 49.451858, 0.023783, -0.034235, -1.041053

1497926241.572333, 0.022602, -0.020159, 0.002749, 0.016000, 0.000000, 0.976000, 2.453446, 2.770514, 49.451523, 0.023604, -0.034147, -1.040911

1497926241.585926, 0.026267, -0.020464, 0.004276, 0.016000, 0.000000, 0.992000, 2.441804, 2.787530, 49.451143, 0.023480, -0.034061, -1.040796

1497926241.599691, 0.023213, -0.021686, 0.002138, 0.016000, 0.000000, 0.992000, 2.432487, 2.801147, 49.450833, 0.023323, -0.033995, -1.040805

1497926241.613234, 0.024129, -0.018326, 0.002138, 0.032000, 0.016000, 0.976000, 2.473629, 2.794386, 49.449174, 0.023506, -0.034206, -1.043278

1497926241.626947, 0.027489, -0.020464, 0.003054, 0.016000, 0.016000, 0.976000, 2.506526, 2.788978, 49.447823, 0.023700, -0.034139, -1.039621

1497926241.640441, 0.028711, -0.019548, 0.002443, 0.016000, 0.016000, 0.976000, 2.532833, 2.784653, 49.446726, 0.023900, -0.034059, -1.035872

1497926241.654048, 0.027794, -0.019548, 0.004276, 0.016000, 0.000000, 0.992000, 2.538340, 2.782271, 49.446578, 0.023787, -0.033968, -1.035334

1497926241.667512, 0.027794, -0.021686, 0.003971, 0.016000, 0.000000, 0.992000, 2.542747, 2.780365, 49.446459, 0.023672, -0.033904, -1.034784

1497926241.681105, 0.025045, -0.020159, 0.002443, 0.016000, 0.016000, 0.992000, 2.514468, 2.697511, 49.452494, 0.023819, -0.033834, -1.030782

1497926241.694783, 0.024129, -0.016188, 0.004887, 0.016000, 0.016000, 0.992000, 2.491813, 2.631144, 49.457216, 0.023951, -0.033716, -1.026604

1497926241.708319, 0.025656, -0.018631, 0.001527, 0.016000, 0.016000, 0.992000, 2.473667, 2.577996, 49.460926, 0.024098, -0.033630, -1.022369

1497926241.721918, 0.022907, -0.015577, 0.003360, 0.032000, 0.000000, 0.944000, 2.473601, 2.616044, 49.458931, 0.023922, -0.033783, -1.027386

1497926241.735357, 0.025351, -0.018326, 0.001833, -0.000000, 0.000000, 0.976000, 2.473548, 2.646453, 49.457316, 0.023709, -0.033401, -1.023194

1497926241.748898, 0.028100, -0.022297, 0.002749, -0.000000, 0.000000, 0.976000, 2.456880, 2.720270, 49.454142, 0.023546, -0.033076, -1.019415

1497926241.762651, 0.023824, -0.020159, 0.002138, 0.016000, 0.016000, 1.008000, 2.443551, 2.779280, 49.451521, 0.023688, -0.033016, -1.016547

1497926241.776217, 0.022297, -0.017715, 0.003054, 0.016000, 0.000000, 0.976000, 2.432890, 2.826460, 49.449372, 0.023515, -0.032912, -1.017173

1497926241.789920, 0.021991, -0.017104, 0.003360, 0.016000, 0.000000, 0.976000, 2.423559, 2.830197, 49.449617, 0.023345, -0.032804, -1.017844

1497926241.803355, 0.024435, -0.020769, 0.005192, 0.016000, 0.000000, 1.008000, 2.416100, 2.833183, 49.449811, 0.023203, -0.032733, -1.018390

1497926241.816984, 0.024129, -0.019548, 0.005192, 0.016000, 0.000000, 1.008000, 2.461480, 2.788136, 49.450133, 0.023061, -0.032656, -1.018544

1497926241.830594, 0.030238, -0.021075, 0.003665, 0.048000, 0.000000, 0.960000, 2.497809, 2.752069, 49.450332, 0.022922, -0.033152, -1.029364

1497926241.844171, 0.023213, -0.019548, 0.001527, 0.016000, 0.000000, 0.992000, 2.526887, 2.723196, 49.450453, 0.022768, -0.033077, -1.028860

1497926241.857933, 0.025656, -0.018326, 0.002443, 0.016000, 0.000000, 0.992000, 2.517192, 2.700177, 49.452210, 0.022653, -0.032992, -1.028327

1497926241.871403, 0.025656, -0.021075, 0.005192, 0.032000, 0.016000, 0.992000, 2.509433, 2.681753, 49.453607, 0.022860, -0.033250, -1.030091

1497926241.884980, 0.023518, -0.022297, 0.003054, 0.016000, 0.000000, 0.976000, 2.485810, 2.666064, 49.455648, 0.022711, -0.033215, -1.029649

1497926241.898524, 0.025656, -0.017715, 0.002443, 0.016000, 0.000000, 0.976000, 2.466918, 2.653517, 49.457269, 0.022594, -0.033119, -1.029283

1497926241.912108, 0.026878, -0.018937, 0.000611, 0.016000, 0.016000, 0.976000, 2.451808, 2.643482, 49.458557, 0.022797, -0.033049, -1.025506

1497926241.925791, 0.019548, -0.016188, -0.000000, 0.016000, 0.000000, 0.976000, 2.507407, 2.670215, 49.454334, 0.022599, -0.032938, -1.025094

1497926241.939309, 0.024129, -0.018021, 0.002138, 0.016000, 0.000000, 0.976000, 2.551926, 2.691618, 49.450896, 0.022462, -0.032853, -1.024498

1497926241.953024, 0.018021, -0.017410, 0.004276, 0.032000, 0.016000, 0.976000, 2.538113, 2.692391, 49.451565, 0.022581, -0.033081, -1.026317

1497926241.966489, 0.024435, -0.016188, 0.004887, 0.032000, 0.016000, 0.976000, 2.527055, 2.693010, 49.452098, 0.022778, -0.033283, -1.028189

1497926241.980069, 0.026267, -0.018326, 0.005192, 0.016000, 0.000000, 0.960000, 2.518203, 2.693505, 49.452522, 0.022667, -0.033201, -1.027747

1497926241.993669, 0.025656, -0.018631, -0.000305, 0.016000, 0.016000, 0.992000, 2.479227, 2.612372, 49.458844, 0.022844, -0.033122, -1.023672

1497926242.007241, 0.024435, -0.020159, 0.002749, 0.016000, 0.016000, 0.992000, 2.448001, 2.547378, 49.463789, 0.022999, -0.033067, -1.019461

1497926242.020956, 0.024435, -0.019242, 0.002443, 0.032000, 0.000000, 0.960000, 2.456824, 2.562376, 49.462577, 0.022869, -0.033275, -1.024354

1497926242.034415, 0.023213, -0.015272, 0.001833, 0.016000, 0.016000, 0.976000, 2.463890, 2.574390, 49.461602, 0.023011, -0.033154, -1.020203

1497926242.048008, 0.028405, -0.017410, 0.001527, 0.016000, 0.016000, 0.976000, 2.469549, 2.584011, 49.460818, 0.023223, -0.033066, -1.016159

1497926242.061448, 0.025351, -0.017104, 0.001527, 0.016000, 0.032000, 0.992000, 2.473158, 2.590749, 49.460285, 0.023653, -0.032918, -1.006540

1497926242.075056, 0.024740, -0.021991, 0.001833, 0.016000, 0.000000, 1.008000, 2.476046, 2.596139, 49.459858, 0.023507, -0.032874, -1.006258

1497926242.088902, 0.026573, -0.019548, 0.003360, 0.016000, 0.000000, 1.008000, 2.460788, 2.632642, 49.458690, 0.023396, -0.032801, -1.006170

1497926242.102389, 0.026878, -0.016188, 0.002749, 0.032000, 0.016000, 0.976000, 2.448590, 2.661823, 49.457733, 0.023610, -0.033005, -1.009039

1497926242.116146, 0.026267, -0.023824, 0.006720, 0.032000, 0.016000, 0.976000, 2.438836, 2.685153, 49.456954, 0.023818, -0.033312, -1.011980

1497926242.129610, 0.024129, -0.019548, 0.002749, 0.016000, 0.000000, 0.944000, 2.464476, 2.571359, 49.461730, 0.023659, -0.033244, -1.011845

1497926242.143401, 0.023518, -0.017715, 0.004276, 0.016000, 0.016000, 0.992000, 2.484974, 2.480328, 49.465353, 0.023786, -0.033162, -1.007237

1497926242.157003, 0.023824, -0.016188, 0.002749, 0.016000, 0.016000, 0.992000, 2.465154, 2.553675, 49.462612, 0.023917, -0.033054, -1.003286

1497926242.170750, 0.023213, -0.019242, 0.003665, 0.016000, 0.000000, 0.992000, 2.449330, 2.612211, 49.460342, 0.023750, -0.032975, -1.003314

1497926242.184599, 0.025962, -0.020159, 0.001527, 0.032000, 0.016000, 0.976000, 2.439749, 2.529804, 49.465099, 0.023956, -0.033236, -1.005779

1497926242.198121, 0.025045, -0.018937, -0.000000, 0.032000, 0.016000, 0.976000, 2.432072, 2.463822, 49.468807, 0.024137, -0.033469, -1.007982

1497926242.211781, 0.023518, -0.017104, 0.000611, 0.016000, 0.000000, 1.008000, 2.425924, 2.411002, 49.471711, 0.023963, -0.033354, -1.007282

1497926242.225231, 0.025351, -0.019853, 0.000916, -0.000000, 0.000000, 0.992000, 2.439931, 2.503736, 49.466416, 0.023751, -0.033001, -1.003088

1497926242.238903, 0.024129, -0.019548, 0.002138, -0.000000, 0.000000, 0.992000, 2.451153, 2.578074, 49.462042, 0.023537, -0.032651, -0.999207

1497926242.252663, 0.029016, -0.017715, 0.002138, 0.032000, 0.000000, 0.992000, 2.459182, 2.653223, 49.457670, 0.023460, -0.032822, -1.004323

1497926242.266125, 0.024129, -0.017410, 0.002443, 0.032000, 0.000000, 0.992000, 2.465605, 2.713377, 49.454086, 0.023313, -0.032982, -1.009421

1497926242.279737, 0.023518, -0.018326, 0.001527, 0.016000, 0.000000, 1.008000, 2.470743, 2.761523, 49.451165, 0.023162, -0.032881, -1.009670

1497926242.293163, 0.027794, -0.021686, 0.003360, 0.016000, 0.000000, 0.976000, 2.422505, 2.763957, 49.453415, 0.023069, -0.032830, -1.010293

1497926242.306805, 0.025045, -0.017410, 0.003360, 0.016000, 0.000000, 0.976000, 2.383971, 2.765899, 49.455179, 0.022948, -0.032725, -1.011118

