Using settings file RTIMULib_peter.ini
IMU Name: L3GD20 + LSM303DLHC
IMU Init Succeeded
Recommended Poll Interval: 10mS

Time, gyroX, gyroY, gyroZ, accelX, accelY, accelZ, magX, magY, magZ, phi, theta, psi

1497961188.355149, 0.019548, -0.014966, 0.000611, 0.064000, -0.160000, 0.960000, 0.455024, -7.656748, 48.993014, -0.165149, -0.065665, -2.964227

1497961188.368754, 0.022297, -0.016188, 0.002749, 0.064000, -0.128000, 0.960000, 0.402724, -7.630897, 48.997505, -0.164220, -0.066049, -2.974956

1497961188.382375, 0.019242, -0.012217, 0.005803, 0.064000, -0.128000, 0.960000, 0.385653, -7.622457, 48.998956, -0.163349, -0.066357, -2.985348

1497961188.396030, 0.020464, -0.012828, 0.005498, 0.064000, -0.144000, 0.944000, 0.378082, -7.664318, 48.992485, -0.162844, -0.066551, -2.989654

1497961188.409531, 0.015272, -0.015882, 0.000916, 0.064000, -0.144000, 0.944000, 0.373676, -7.688678, 48.988701, -0.162417, -0.066789, -2.994094

1497961188.423211, 0.017715, -0.013134, 0.001833, 0.032000, -0.128000, 0.976000, 0.370851, -7.704292, 48.986270, -0.161267, -0.066616, -3.012956

1497961188.436905, 0.020159, -0.009468, 0.002749, 0.064000, -0.144000, 0.944000, 0.485563, -7.704052, 48.985305, -0.160804, -0.066761, -3.017086

1497961188.450540, 0.020464, -0.010996, 0.003665, 0.064000, -0.144000, 0.944000, 0.567197, -7.703857, 48.984458, -0.160347, -0.066920, -3.021166

1497961188.464366, 0.017104, -0.015882, 0.002138, 0.064000, -0.144000, 0.960000, 0.584486, -7.703782, 48.984267, -0.159888, -0.067134, -3.026126

1497961188.477923, 0.022297, -0.018326, -0.000000, 0.080000, -0.160000, 0.960000, 0.597404, -7.703724, 48.984120, -0.159698, -0.067673, -3.025793

1497961188.491556, 0.022602, -0.017715, 0.000305, 0.080000, -0.160000, 0.960000, 0.607206, -7.703680, 48.984006, -0.159506, -0.068193, -3.025456

1497961188.505280, 0.028405, -0.017104, 0.001222, 0.064000, -0.128000, 0.944000, 0.554915, -7.696990, 48.985678, -0.158635, -0.068510, -3.034944

1497961188.518872, 0.023213, -0.014966, 0.002443, 0.064000, -0.160000, 0.976000, 0.514480, -7.691810, 48.986933, -0.158408, -0.068625, -3.034539

1497961188.532545, 0.022907, -0.017410, -0.001222, 0.064000, -0.160000, 0.976000, 0.540466, -7.684395, 48.987817, -0.158185, -0.068778, -3.034105

1497961188.546056, 0.018021, -0.018631, 0.001222, 0.080000, -0.160000, 0.944000, 0.560803, -7.678589, 48.988499, -0.158135, -0.069317, -3.032786

1497961188.559754, 0.019548, -0.017715, 0.002749, 0.080000, -0.128000, 0.976000, 0.576792, -7.674025, 48.989029, -0.157384, -0.069900, -3.041791

1497961188.573505, 0.016799, -0.014966, 0.000916, 0.080000, -0.128000, 0.976000, 0.608188, -7.670387, 48.989219, -0.156678, -0.070435, -3.050687

1497961188.587005, 0.019548, -0.014661, 0.000916, 0.064000, -0.160000, 0.960000, 0.633030, -7.667507, 48.989355, -0.156596, -0.070537, -3.048762

1497961188.600739, 0.018326, -0.013744, 0.002443, 0.064000, -0.160000, 0.960000, 0.559678, -7.647214, 48.993419, -0.156529, -0.070625, -3.046807

1497961188.614420, 0.018021, -0.016799, 0.000916, 0.048000, -0.160000, 0.976000, 0.501394, -7.631077, 48.996567, -0.156435, -0.070410, -3.044550

1497961188.628011, 0.020159, -0.015272, 0.001833, 0.064000, -0.144000, 0.960000, 0.455020, -7.618230, 48.999018, -0.156011, -0.070530, -3.048321

1497961188.641750, 0.017410, -0.011606, 0.003360, 0.064000, -0.144000, 0.960000, 0.436310, -7.658974, 48.992836, -0.155629, -0.070597, -3.052279

1497961188.655280, 0.019853, -0.014355, 0.004276, 0.064000, -0.144000, 0.976000, 0.421409, -7.691417, 48.987884, -0.155175, -0.070683, -3.057241

1497961188.669048, 0.022297, -0.017104, 0.002749, 0.048000, -0.160000, 0.960000, 0.483830, -7.672674, 48.990246, -0.155113, -0.070494, -3.053992

1497961188.682813, 0.021380, -0.014661, 0.000916, 0.048000, -0.160000, 0.960000, 0.533746, -7.657676, 48.992075, -0.155063, -0.070281, -3.050566

1497961188.696382, 0.018326, -0.013134, 0.002138, 0.064000, -0.144000, 0.976000, 0.573666, -7.645675, 48.993498, -0.154639, -0.070360, -3.055437

1497961188.710137, 0.019548, -0.013744, -0.000916, 0.064000, -0.160000, 0.944000, 0.512704, -7.716691, 48.983039, -0.154646, -0.070488, -3.053070

1497961188.723713, 0.021380, -0.016799, 0.001527, 0.064000, -0.160000, 0.944000, 0.464074, -7.773320, 48.974569, -0.154633, -0.070643, -3.051168

1497961188.737365, 0.017715, -0.015577, 0.002138, 0.080000, -0.160000, 0.960000, 0.462666, -7.738363, 48.980118, -0.154608, -0.071075, -3.050600

1497961188.751065, 0.019548, -0.007941, -0.000916, 0.080000, -0.160000, 0.960000, 0.461538, -7.710371, 48.984543, -0.154553, -0.071404, -3.049945

1497961188.764746, 0.022907, -0.018326, 0.005498, 0.080000, -0.144000, 0.960000, 0.478750, -7.738634, 48.979921, -0.154162, -0.071862, -3.053811

1497961188.778447, 0.018326, -0.015272, 0.004887, 0.080000, -0.128000, 0.960000, 0.492512, -7.761230, 48.976209, -0.153539, -0.072349, -3.062017

1497961188.792184, 0.014966, -0.015272, 0.003054, 0.080000, -0.128000, 0.960000, 0.503517, -7.779298, 48.973230, -0.152969, -0.072829, -3.070194

1497961188.805771, 0.018937, -0.012828, 0.003360, 0.080000, -0.144000, 0.976000, 0.493831, -7.736823, 48.980057, -0.152609, -0.073165, -3.074402

1497961188.819494, 0.019853, -0.011606, 0.000916, 0.064000, -0.160000, 0.944000, 0.486087, -7.702860, 48.985487, -0.152659, -0.073210, -3.071577

1497961188.833103, 0.021991, -0.014966, 0.002749, 0.064000, -0.160000, 0.944000, 0.497846, -7.669416, 48.990616, -0.152685, -0.073295, -3.068531

1497961188.846698, 0.018937, -0.012523, 0.003054, 0.064000, -0.160000, 0.960000, 0.507236, -7.642708, 48.994693, -0.152695, -0.073316, -3.066212

1497961188.860384, 0.014661, -0.014661, 0.002749, 0.064000, -0.160000, 0.976000, 0.514736, -7.621373, 48.997939, -0.152705, -0.073338, -3.064657

1497961188.873942, 0.019548, -0.016799, 0.002138, 0.064000, -0.160000, 0.976000, 0.502747, -7.664224, 48.991379, -0.152651, -0.073385, -3.063465

1497961188.887669, 0.021991, -0.011301, 0.005498, 0.064000, -0.144000, 0.944000, 0.493153, -7.698508, 48.986101, -0.152326, -0.073397, -3.066511

1497961188.901175, 0.020769, -0.013439, 0.002749, 0.064000, -0.144000, 0.944000, 0.522572, -7.714274, 48.983315, -0.152027, -0.073439, -3.069660

1497961188.914812, 0.022297, -0.017104, 0.002138, 0.064000, -0.176000, 0.976000, 0.546147, -7.726906, 48.981067, -0.152286, -0.073565, -3.063232

1497961188.928541, 0.025656, -0.016493, 0.003971, 0.064000, -0.144000, 0.960000, 0.565031, -7.737024, 48.979255, -0.151862, -0.073629, -3.067555

1497961188.942054, 0.025045, -0.018021, 0.003360, 0.064000, -0.144000, 0.960000, 0.542943, -7.756787, 48.976379, -0.151459, -0.073709, -3.071918

1497961188.955707, 0.025962, -0.014661, 0.003971, 0.064000, -0.144000, 0.944000, 0.525285, -7.772584, 48.974067, -0.151104, -0.073759, -3.075361

1497961188.969379, 0.013439, -0.013744, 0.002443, 0.064000, -0.144000, 0.992000, 0.548107, -7.770418, 48.974161, -0.150760, -0.073758, -3.081537

1497961188.982972, 0.021075, -0.015577, 0.005192, 0.064000, -0.144000, 0.992000, 0.566371, -7.768684, 48.974228, -0.150324, -0.073773, -3.087571

1497961188.996747, 0.020464, -0.014355, 0.003971, 0.048000, -0.160000, 0.960000, 0.580987, -7.767296, 48.974277, -0.150387, -0.073490, -3.084438

1497961189.010295, 0.020769, -0.011606, 0.000305, 0.064000, -0.144000, 0.944000, 0.537732, -7.823210, 48.965871, -0.150121, -0.073509, -3.088058

1497961189.023967, 0.018326, -0.013439, 0.000916, 0.064000, -0.144000, 0.944000, 0.503106, -7.867958, 48.959069, -0.149891, -0.073551, -3.091880

1497961189.037644, 0.021075, -0.015272, 0.006109, 0.080000, -0.160000, 0.960000, 0.492644, -7.830801, 48.965132, -0.149918, -0.073917, -3.090946

1497961189.051245, 0.016188, -0.015577, 0.002749, 0.080000, -0.160000, 0.960000, 0.484305, -7.801182, 48.969943, -0.150008, -0.074286, -3.089913

1497961189.064961, 0.015272, -0.016188, 0.002749, 0.064000, -0.160000, 0.928000, 0.477653, -7.777554, 48.973766, -0.150233, -0.074402, -3.086401

1497961189.078459, 0.017715, -0.014661, 0.003054, 0.080000, -0.144000, 0.944000, 0.491856, -7.741873, 48.979279, -0.150038, -0.074770, -3.088898

1497961189.092154, 0.017104, -0.012523, 0.004276, 0.080000, -0.144000, 0.944000, 0.503249, -7.713246, 48.983679, -0.149851, -0.075101, -3.091178

1497961189.105965, 0.014966, -0.014661, 0.002749, 0.080000, -0.144000, 0.960000, 0.566919, -7.701830, 48.984780, -0.149644, -0.075435, -3.094109

1497961189.119493, 0.016188, -0.015577, 0.003054, 0.064000, -0.160000, 0.960000, 0.617861, -7.692687, 48.985601, -0.149757, -0.075458, -3.091493

1497961189.133204, 0.019548, -0.014050, 0.003665, 0.064000, -0.160000, 0.960000, 0.658620, -7.685366, 48.986219, -0.149821, -0.075462, -3.088815

1497961189.146788, 0.018937, -0.014966, 0.001833, 0.080000, -0.160000, 0.944000, 0.599966, -7.739678, 48.978421, -0.149926, -0.075831, -3.086707

1497961189.160436, 0.021380, -0.014355, 0.004276, 0.064000, -0.160000, 0.944000, 0.552982, -7.783168, 48.972082, -0.150017, -0.075854, -3.084057

1497961189.174146, 0.019242, -0.014355, 0.003665, 0.064000, -0.160000, 0.944000, 0.496792, -7.814828, 48.967642, -0.150132, -0.075875, -3.081759

1497961189.187647, 0.022907, -0.015272, -0.000000, 0.048000, -0.144000, 0.992000, 0.451836, -7.840149, 48.964029, -0.149596, -0.075545, -3.090155

1497961189.201398, 0.021686, -0.017104, 0.001222, 0.064000, -0.144000, 0.944000, 0.415869, -7.860401, 48.961101, -0.149328, -0.075595, -3.093788

1497961189.215203, 0.022602, -0.016188, 0.003665, 0.064000, -0.144000, 0.944000, 0.497257, -7.858541, 48.960641, -0.149053, -0.075627, -3.097381

1497961189.228825, 0.021686, -0.011301, 0.001833, 0.064000, -0.144000, 0.960000, 0.562374, -7.857037, 48.960177, -0.148741, -0.075577, -3.101933

1497961189.242548, 0.021991, -0.009774, 0.004887, 0.064000, -0.144000, 0.960000, 0.577655, -7.909597, 48.951536, -0.148431, -0.075503, -3.106760

1497961189.256123, 0.023213, -0.012217, 0.002749, 0.064000, -0.144000, 0.912000, 0.589876, -7.951628, 48.944580, -0.148283, -0.075523, -3.108948

1497961189.269823, 0.021991, -0.013439, 0.003665, 0.064000, -0.160000, 0.960000, 0.599651, -7.985242, 48.938989, -0.148334, -0.075502, -3.108253

1497961189.283570, 0.018021, -0.012828, 0.001222, 0.064000, -0.160000, 0.960000, 0.607469, -8.012125, 48.934498, -0.148432, -0.075477, -3.107806

1497961189.297121, 0.019853, -0.014966, 0.000611, 0.064000, -0.128000, 0.944000, 0.613723, -8.033628, 48.930895, -0.147861, -0.075575, -3.117905

1497961189.310725, 0.022602, -0.015577, 0.005192, 0.064000, -0.144000, 0.944000, 0.619015, -8.036226, 48.930401, -0.147617, -0.075589, -3.122414

1497961189.324405, 0.019548, -0.012828, 0.006414, 0.064000, -0.144000, 0.944000, 0.623251, -8.038305, 48.930006, -0.147418, -0.075565, -3.126843

1497961189.338210, 0.017104, -0.012828, 0.004887, 0.064000, -0.128000, 0.976000, 0.644599, -7.979728, 48.939316, -0.146803, -0.075611, -3.137888

1497961189.351814, 0.022602, -0.013744, 0.001833, 0.064000, -0.128000, 0.944000, 0.661665, -7.932889, 48.946703, -0.146229, -0.075673, 3.136282

1497961189.365768, 0.018326, -0.012523, 0.004581, 0.064000, -0.128000, 0.944000, 0.675311, -7.895431, 48.952573, -0.145722, -0.075711, 3.127676

1497961189.379873, 0.022907, -0.014661, 0.002443, 0.080000, -0.144000, 0.976000, 0.704317, -7.844346, 48.960376, -0.145434, -0.076009, 3.124344

1497961189.393595, 0.021075, -0.014050, 0.006109, 0.080000, -0.144000, 0.976000, 0.727499, -7.803509, 48.966563, -0.145187, -0.076280, 3.121344

1497961189.407533, 0.017104, -0.014966, 0.003054, 0.048000, -0.128000, 0.992000, 0.709926, -7.795170, 48.968149, -0.144437, -0.076046, 3.107383

1497961189.421284, 0.013134, -0.018937, 0.000916, 0.048000, -0.144000, 0.960000, 0.695857, -7.788493, 48.969413, -0.144297, -0.075756, 3.103217

1497961189.435023, 0.015577, -0.011912, -0.001833, 0.048000, -0.144000, 0.960000, 0.684596, -7.783147, 48.970422, -0.144126, -0.075384, 3.099172

1497961189.448891, 0.016188, -0.012523, 0.002138, 0.064000, -0.144000, 0.976000, 0.675779, -7.817864, 48.965014, -0.143938, -0.075332, 3.095521

1497961189.462546, 0.020769, -0.015882, 0.002443, 0.080000, -0.144000, 0.944000, 0.668718, -7.845659, 48.960665, -0.143818, -0.075698, 3.094367

1497961189.476575, 0.019242, -0.013439, 0.004581, 0.080000, -0.144000, 0.944000, 0.608031, -7.832184, 48.963614, -0.143715, -0.076025, 3.093375

1497961189.490573, 0.018631, -0.014966, 0.002749, 0.064000, -0.144000, 0.944000, 0.559442, -7.821387, 48.965919, -0.143611, -0.076035, 3.091896

1497961189.504301, 0.018937, -0.016799, 0.000916, 0.080000, -0.144000, 0.944000, 0.520544, -7.812737, 48.967728, -0.143518, -0.076404, 3.091066

1497961189.518221, 0.020769, -0.016188, 0.000916, 0.080000, -0.144000, 0.944000, 0.525971, -7.802564, 48.969292, -0.143398, -0.076761, 3.090306

1497961189.531784, 0.019548, -0.011912, 0.002138, 0.048000, -0.144000, 0.960000, 0.530311, -7.794428, 48.970541, -0.143204, -0.076358, 3.086835

1497961189.545550, 0.021991, -0.014355, 0.003971, 0.064000, -0.160000, 0.928000, 0.570832, -7.755156, 48.976321, -0.143486, -0.076453, 3.092786

1497961189.559051, 0.020159, -0.014966, 0.003360, 0.064000, -0.160000, 0.928000, 0.603271, -7.723709, 48.980901, -0.143792, -0.076553, 3.098879

1497961189.572719, 0.021075, -0.014355, 0.003054, 0.064000, -0.160000, 0.960000, 0.629237, -7.698532, 48.984538, -0.143964, -0.076566, 3.103268

1497961189.586254, 0.026573, -0.019548, 0.004276, 0.064000, -0.160000, 0.944000, 0.575585, -7.740868, 48.978525, -0.144119, -0.076676, 3.108123

1497961189.600218, 0.020464, -0.018937, 0.000916, 0.080000, -0.144000, 0.944000, 0.532759, -7.774652, 48.973658, -0.143991, -0.077065, 3.107180

1497961189.614004, 0.018631, -0.014661, 0.001222, 0.064000, -0.224000, 0.960000, 0.536143, -7.796375, 48.970168, -0.145439, -0.077834, 3.126392

1497961189.627826, 0.016188, -0.014355, 0.005803, 0.064000, -0.224000, 0.960000, 0.538855, -7.813781, 48.967364, -0.146908, -0.078544, -3.137941

1497961189.641878, 0.019853, -0.011912, 0.001833, 0.048000, -0.160000, 0.960000, 0.577883, -7.791763, 48.970427, -0.147058, -0.078153, -3.134092

1497961189.655503, 0.017410, -0.014966, 0.000916, 0.064000, -0.128000, 0.944000, 0.609143, -7.774121, 48.972852, -0.146541, -0.078178, 3.141134

1497961189.669444, 0.021380, -0.015577, 0.001527, 0.064000, -0.128000, 0.944000, 0.634176, -7.759991, 48.974775, -0.145977, -0.078210, 3.133369

1497961189.682975, 0.017104, -0.016493, 0.003054, 0.064000, -0.160000, 0.992000, 0.598187, -7.757240, 48.975664, -0.146044, -0.078137, 3.134706

1497961189.696536, 0.016493, -0.013744, 0.002749, 0.080000, -0.144000, 0.944000, 0.569444, -7.755038, 48.976355, -0.145940, -0.078418, 3.133337

1497961189.710156, 0.024129, -0.018937, 0.002443, 0.080000, -0.144000, 0.944000, 0.564359, -7.764837, 48.974862, -0.145735, -0.078762, 3.131950

1497961189.723904, 0.023518, -0.013439, 0.004276, 0.048000, -0.144000, 0.944000, 0.560302, -7.772655, 48.973668, -0.145497, -0.078355, 3.129154

1497961189.737488, 0.024435, -0.014355, 0.005192, 0.080000, -0.176000, 0.960000, 0.557063, -7.778896, 48.972714, -0.145878, -0.078721, 3.136008

1497961189.751507, 0.021991, -0.013134, -0.075747, 0.080000, -0.176000, 0.960000, 0.573747, -7.778640, 48.972562, -0.146191, -0.079228, -3.141533

1497961189.765385, 0.021380, -0.015577, 0.000611, 0.048000, -0.144000, 0.960000, 0.587117, -7.778434, 48.972436, -0.145890, -0.078836, 3.137170

1497961189.779107, 0.019548, -0.015577, -0.000000, 0.048000, -0.144000, 0.976000, 0.560650, -7.771995, 48.973769, -0.145558, -0.078440, 3.131597

1497961189.793139, 0.019853, -0.015577, 0.004276, 0.048000, -0.144000, 0.976000, 0.539485, -7.766843, 48.974824, -0.145231, -0.078047, 3.126307

1497961189.806687, 0.018326, -0.014661, 0.001527, 0.080000, -0.160000, 0.960000, 0.522558, -7.762722, 48.975661, -0.145384, -0.078341, 3.128879

1497961189.820339, 0.018326, -0.007941, 0.001222, 0.080000, -0.160000, 0.960000, 0.545917, -7.762528, 48.975437, -0.145532, -0.078542, 3.131397

1497961189.833844, 0.024435, -0.014661, 0.003054, 0.064000, -0.144000, 0.976000, 0.564614, -7.762371, 48.975250, -0.145207, -0.078451, 3.127709

1497961189.847545, 0.020769, -0.014355, 0.003971, 0.096000, -0.240000, 0.960000, 0.580287, -7.771753, 48.973578, -0.146677, -0.079777, -3.139119

1497961189.861072, 0.020464, -0.015882, 0.005192, 0.096000, -0.240000, 0.960000, 0.592858, -7.779277, 48.972233, -0.148145, -0.081068, -3.123054

1497961189.874986, 0.018021, -0.013744, 0.000611, 0.080000, -0.160000, 0.976000, 0.602935, -7.785307, 48.971152, -0.148189, -0.081252, -3.121981

1497961189.888767, 0.025351, -0.016188, 0.004887, 0.048000, -0.176000, 0.960000, 0.555084, -7.762724, 48.975303, -0.148676, -0.081011, -3.110924

1497961189.902625, 0.022297, -0.015882, 0.005803, 0.048000, -0.176000, 0.960000, 0.516832, -7.744666, 48.978580, -0.149190, -0.080761, -3.100120

1497961189.916529, 0.019548, -0.015577, 0.002749, 0.080000, -0.160000, 0.944000, 0.541113, -7.780805, 48.972590, -0.149300, -0.081036, -3.098046

1497961189.930095, 0.017410, -0.013744, 0.004887, 0.064000, -0.128000, 0.976000, 0.560508, -7.809667, 48.967777, -0.148623, -0.080987, -3.108391

1497961189.943986, 0.020159, -0.014355, 0.005192, 0.064000, -0.128000, 0.976000, 0.576004, -7.832723, 48.963915, -0.147916, -0.080947, -3.118709

1497961189.957493, 0.022602, -0.013134, 0.001833, 0.064000, -0.160000, 0.960000, 0.534519, -7.813466, 48.967462, -0.147981, -0.080828, -3.116604

1497961189.971068, 0.019548, -0.013744, 0.002443, 0.064000, -0.160000, 0.896000, 0.501224, -7.798005, 48.970278, -0.148327, -0.080871, -3.110973

1497961189.984680, 0.015577, -0.012828, 0.002443, 0.080000, -0.176000, 0.944000, 0.584913, -7.782227, 48.971860, -0.148831, -0.081197, -3.104352

1497961189.998538, 0.021380, -0.012828, 0.003665, 0.064000, -0.160000, 0.976000, 0.651949, -7.769573, 48.973023, -0.148830, -0.081039, -3.103023

1497961190.012241, 0.023518, -0.014661, 0.004276, 0.064000, -0.160000, 0.976000, 0.705632, -7.759429, 48.973887, -0.148805, -0.080906, -3.101587

1497961190.026020, 0.019242, -0.010690, 0.002749, 0.048000, -0.128000, 0.992000, 0.748612, -7.751300, 48.974536, -0.147912, -0.080564, -3.116699

1497961190.039839, 0.016188, -0.012828, 0.000611, 0.064000, -0.144000, 0.944000, 0.783018, -7.744787, 48.975028, -0.147747, -0.080457, -3.119293

1497961190.053485, 0.019242, -0.016799, 0.001833, 0.064000, -0.144000, 0.944000, 0.772362, -7.726982, 48.978010, -0.147550, -0.080401, -3.121663

1497961190.067387, 0.018326, -0.015272, 0.003054, 0.048000, -0.160000, 0.960000, 0.763858, -7.712773, 48.980383, -0.147730, -0.080023, -3.116804

1497961190.080991, 0.017104, -0.014050, -0.000611, 0.080000, -0.192000, 0.976000, 0.740099, -7.753240, 48.974359, -0.148416, -0.080439, -3.106913

1497961190.094768, 0.019242, -0.014661, 0.003971, 0.080000, -0.192000, 0.976000, 0.721056, -7.785669, 48.969498, -0.149065, -0.080837, -3.097359

1497961190.108299, 0.017715, -0.016188, 0.000916, 0.064000, -0.144000, 0.944000, 0.705798, -7.811647, 48.965583, -0.148855, -0.080765, -3.100779

1497961190.122033, 0.019853, -0.014661, 0.001222, 0.080000, -0.160000, 0.944000, 0.637079, -7.837725, 48.962358, -0.148970, -0.081027, -3.098963

1497961190.135592, 0.022907, -0.016799, 0.000305, 0.080000, -0.160000, 0.944000, 0.582217, -7.858532, 48.959706, -0.149046, -0.081308, -3.097347

1497961190.149537, 0.020159, -0.016188, 0.002749, 0.048000, -0.144000, 0.944000, 0.593978, -7.824365, 48.965036, -0.148752, -0.080896, -3.101828

1497961190.163487, 0.019548, -0.016188, 0.003971, 0.048000, -0.144000, 1.008000, 0.603384, -7.797035, 48.969281, -0.148200, -0.080474, -3.111141

1497961190.177243, 0.020464, -0.012828, 0.003971, 0.080000, -0.160000, 0.992000, 0.610907, -7.775175, 48.972663, -0.148165, -0.080617, -3.110938

1497961190.191228, 0.023824, -0.016493, 0.004581, 0.064000, -0.144000, 0.960000, 0.597985, -7.769338, 48.973749, -0.147833, -0.080534, -3.114573

1497961190.204805, 0.021075, -0.015577, 0.004276, 0.064000, -0.144000, 0.960000, 0.587665, -7.764676, 48.974613, -0.147554, -0.080436, -3.118098

1497961190.218668, 0.021686, -0.014355, 0.003971, 0.064000, -0.144000, 0.944000, 0.542766, -7.707205, 48.984208, -0.147328, -0.080346, -3.120157

1497961190.232199, 0.018326, -0.016799, -0.000000, 0.064000, -0.160000, 0.960000, 0.506875, -7.661251, 48.991801, -0.147466, -0.080301, -3.116968

1497961190.245738, 0.018021, -0.015272, 0.001527, 0.064000, -0.160000, 0.960000, 0.478179, -7.624504, 48.997822, -0.147609, -0.080236, -3.113603

1497961190.259253, 0.019548, -0.015882, 0.001527, 0.080000, -0.160000, 0.976000, 0.491930, -7.612999, 48.999475, -0.147651, -0.080464, -3.111762

1497961190.273242, 0.021686, -0.014966, 0.001527, 0.048000, -0.144000, 0.976000, 0.502925, -7.603800, 49.000791, -0.147265, -0.080031, -3.116146

1497961190.286928, 0.021075, -0.014050, 0.006414, 0.048000, -0.144000, 0.976000, 0.549195, -7.680612, 48.988313, -0.146894, -0.079581, -3.121273

1497961190.300724, 0.018937, -0.016493, 0.002443, 0.064000, -0.144000, 0.976000, 0.586290, -7.742176, 48.978191, -0.146604, -0.079502, -3.125457

1497961190.314566, 0.023518, -0.012828, 0.004887, 0.080000, -0.144000, 0.944000, 0.616017, -7.791503, 48.970004, -0.146391, -0.079741, -3.127486

1497961190.328222, 0.017715, -0.013744, 0.001833, 0.080000, -0.144000, 0.944000, 0.583645, -7.800374, 48.968988, -0.146262, -0.079991, -3.129549

1497961190.342189, 0.021686, -0.014050, 0.002138, 0.064000, -0.128000, 0.960000, 0.557790, -7.807457, 48.968161, -0.145637, -0.079960, -3.138481

1497961190.355722, 0.022602, -0.012828, 0.001833, 0.064000, -0.128000, 0.960000, 0.592447, -7.834130, 48.963493, -0.145020, -0.079907, 3.135680

1497961190.369258, 0.022602, -0.017104, 0.004276, 0.048000, -0.160000, 0.976000, 0.620158, -7.855455, 48.959733, -0.145108, -0.079513, 3.137778

1497961190.382867, 0.020769, -0.016188, 0.001527, 0.064000, -0.144000, 0.944000, 0.642319, -7.872505, 48.956709, -0.144942, -0.079463, 3.134937

1497961190.396585, 0.023824, -0.019853, 0.003665, 0.064000, -0.144000, 0.944000, 0.660658, -7.856725, 48.959000, -0.144740, -0.079460, 3.132286

1497961190.410187, 0.020159, -0.016188, 0.004887, 0.080000, -0.160000, 0.960000, 0.675351, -7.844082, 48.960827, -0.144885, -0.079736, 3.134402

1497961190.424083, 0.017715, -0.016799, 0.000305, 0.064000, -0.176000, 0.960000, 0.668794, -7.798082, 48.968264, -0.145426, -0.079835, -3.140132

1497961190.438055, 0.019853, -0.014050, 0.002749, 0.064000, -0.176000, 0.960000, 0.663543, -7.761236, 48.974189, -0.145929, -0.079890, -3.131402

1497961190.451843, 0.021075, -0.015577, 0.004581, 0.064000, -0.160000, 0.928000, 0.640018, -7.776155, 48.972135, -0.146173, -0.079905, -3.126770

1497961190.465833, 0.017715, -0.013744, 0.002443, 0.064000, -0.160000, 0.960000, 0.621232, -7.788067, 48.970485, -0.146332, -0.079826, -3.124220

1497961190.479363, 0.019853, -0.014661, 0.002749, 0.064000, -0.160000, 0.960000, 0.606225, -7.797582, 48.969158, -0.146466, -0.079752, -3.121805

1497961190.493057, 0.020159, -0.015577, -0.000305, 0.064000, -0.096000, 0.960000, 0.631505, -7.793555, 48.969480, -0.145200, -0.080090, -3.138743

1497961190.506579, 0.020769, -0.013439, 0.002138, 0.080000, -0.128000, 0.960000, 0.651742, -7.790331, 48.969728, -0.144686, -0.080351, 3.137453

1497961190.520329, 0.016493, -0.015577, 0.002443, 0.080000, -0.128000, 0.960000, 0.649782, -7.808917, 48.966793, -0.144235, -0.080636, 3.130520

1497961190.533868, 0.017104, -0.015272, 0.001833, 0.048000, -0.160000, 0.944000, 0.648213, -7.823801, 48.964438, -0.144563, -0.080286, 3.135807

1497961190.547675, 0.020769, -0.015577, 0.003665, 0.048000, -0.160000, 0.944000, 0.646956, -7.835717, 48.962549, -0.144827, -0.079944, 3.140888

1497961190.561477, 0.017410, -0.018631, 0.002138, 0.080000, -0.128000, 0.960000, 0.645309, -7.763852, 48.974018, -0.144361, -0.080279, 3.134131

1497961190.575282, 0.019853, -0.015882, 0.004581, 0.080000, -0.160000, 0.960000, 0.643992, -7.706420, 48.983105, -0.144513, -0.080546, 3.136996

1497961190.589167, 0.027184, -0.015272, 0.004887, 0.080000, -0.160000, 0.960000, 0.698271, -7.699430, 48.983461, -0.144561, -0.080800, 3.139889

1497961190.602752, 0.019548, -0.015882, 0.000305, 0.080000, -0.160000, 0.976000, 0.741681, -7.693832, 48.983703, -0.144662, -0.081025, -3.141198

1497961190.616661, 0.022907, -0.017715, 0.000611, 0.064000, -0.160000, 0.976000, 0.776401, -7.689351, 48.983868, -0.144732, -0.080960, -3.138405

1497961190.630168, 0.023213, -0.018021, 0.003665, 0.064000, -0.160000, 0.976000, 0.767290, -7.739672, 48.976086, -0.144805, -0.080882, -3.136049

1497961190.643739, 0.020464, -0.015272, 0.002443, 0.064000, -0.160000, 0.944000, 0.760003, -7.779905, 48.969825, -0.145026, -0.080841, -3.132122

1497961190.657272, 0.024740, -0.010996, 0.003665, 0.048000, -0.160000, 0.976000, 0.644095, -7.758545, 48.974875, -0.145097, -0.080357, -3.129228

1497961190.671164, 0.017104, -0.015577, 0.002443, 0.048000, -0.160000, 0.976000, 0.551358, -7.741425, 48.978716, -0.145261, -0.079949, -3.126360

1497961190.684926, 0.019242, -0.014050, 0.004276, 0.064000, -0.160000, 0.944000, 0.477162, -7.727707, 48.981661, -0.145484, -0.079906, -3.122627

1497961190.698659, 0.021380, -0.016188, 0.003360, 0.080000, -0.144000, 0.944000, 0.454734, -7.719823, 48.983118, -0.145323, -0.080183, -3.124257

1497961190.712499, 0.021991, -0.014355, 0.000305, 0.080000, -0.144000, 0.944000, 0.436778, -7.713509, 48.984276, -0.145151, -0.080438, -3.125858

1497961190.726155, 0.019242, -0.014661, 0.002749, 0.112000, -0.176000, 0.944000, 0.496170, -7.711499, 48.984027, -0.145592, -0.081431, -3.120927

1497961190.740067, 0.019853, -0.010385, 0.005192, 0.112000, -0.176000, 0.944000, 0.543741, -7.709882, 48.983776, -0.146017, -0.082343, -3.116019

1497961190.753606, 0.021686, -0.018937, 0.004276, 0.064000, -0.144000, 0.944000, 0.581833, -7.708581, 48.983543, -0.145827, -0.082269, -3.118143

1497961190.767108, 0.021991, -0.015882, 0.001222, 0.080000, -0.144000, 0.976000, 0.556383, -7.698183, 48.985474, -0.145550, -0.082446, -3.121247

1497961190.780692, 0.016799, -0.014355, 0.002749, 0.080000, -0.144000, 0.976000, 0.536054, -7.689876, 48.987006, -0.145348, -0.082598, -3.124208

1497961190.794516, 0.022907, -0.018937, 0.003665, 0.096000, -0.160000, 0.960000, 0.538439, -7.668395, 48.990347, -0.145426, -0.083177, -3.122221

1497961190.808090, 0.019853, -0.015882, 0.002138, 0.064000, -0.144000, 0.944000, 0.540346, -7.651211, 48.993012, -0.145272, -0.083052, -3.123813

1497961190.822001, 0.018937, -0.011606, 0.003360, 0.064000, -0.144000, 0.944000, 0.541748, -7.709259, 48.983896, -0.145125, -0.082873, -3.125786

1497961190.835973, 0.023824, -0.015577, 0.006414, 0.080000, -0.144000, 0.976000, 0.561240, -7.755633, 48.976356, -0.144833, -0.083030, -3.129000

1497961190.849710, 0.025962, -0.013134, 0.004276, 0.080000, -0.160000, 0.944000, 0.576828, -7.792709, 48.970289, -0.144950, -0.083232, -3.126373

1497961190.863560, 0.027184, -0.015272, 0.005498, 0.080000, -0.160000, 0.944000, 0.589155, -7.765418, 48.974477, -0.145048, -0.083459, -3.123614

1497961190.877084, 0.020159, -0.015272, 0.002749, 0.064000, -0.144000, 0.944000, 0.599011, -7.743599, 48.977813, -0.144894, -0.083316, -3.125884

1497961190.890756, 0.021991, -0.015272, 0.003971, 0.064000, -0.144000, 0.944000, 0.552704, -7.756818, 48.976265, -0.144717, -0.083176, -3.128154

1497961190.904294, 0.021991, -0.014661, 0.003360, 0.096000, -0.160000, 0.944000, 0.515568, -7.767414, 48.974991, -0.144877, -0.083721, -3.125994

1497961190.917971, 0.022602, -0.014661, 0.000611, 0.048000, -0.144000, 0.944000, 0.485802, -7.775905, 48.973948, -0.144652, -0.083235, -3.129261

1497961190.931484, 0.018631, -0.012217, 0.002138, 0.048000, -0.144000, 0.944000, 0.498462, -7.740334, 48.979455, -0.144497, -0.082722, -3.132111

1497961190.945388, 0.020159, -0.014661, 0.003054, 0.064000, -0.128000, 0.960000, 0.508590, -7.711874, 48.983840, -0.143923, -0.082630, -3.140255

1497961190.959177, 0.018326, -0.013134, 0.001833, 0.064000, -0.160000, 0.992000, 0.535045, -7.725032, 48.981485, -0.144012, -0.082432, -3.138908

1497961190.973090, 0.025962, -0.016188, 0.002138, 0.064000, -0.160000, 0.992000, 0.556205, -7.735553, 48.979589, -0.143992, -0.082279, -3.137649

1497961190.987074, 0.023518, -0.014661, 0.004276, 0.064000, -0.160000, 0.992000, 0.573129, -7.743968, 48.978064, -0.144006, -0.082105, -3.136447

1497961191.000746, 0.026267, -0.013134, 0.003360, 0.080000, -0.160000, 0.944000, 0.623519, -7.732658, 48.979235, -0.144135, -0.082334, -3.133309

1497961191.014724, 0.020769, -0.015577, 0.002138, 0.080000, -0.160000, 0.944000, 0.663829, -7.723605, 48.980134, -0.144329, -0.082598, -3.130156

1497961191.028243, 0.020464, -0.013744, 0.001527, 0.096000, -0.160000, 0.976000, 0.641187, -7.683668, 48.986716, -0.144414, -0.083071, -3.128696

1497961191.041784, 0.023824, -0.016493, 0.002138, 0.064000, -0.160000, 0.960000, 0.623056, -7.651683, 48.991957, -0.144548, -0.082973, -3.125085

1497961191.055410, 0.022907, -0.014355, 0.001833, 0.064000, -0.160000, 0.960000, 0.608540, -7.626073, 48.996132, -0.144689, -0.082851, -3.121385

1497961191.069179, 0.021686, -0.017104, 0.003054, 0.064000, -0.160000, 0.976000, 0.596852, -7.641590, 48.993858, -0.144781, -0.082732, -3.118777

1497961191.082776, 0.012828, -0.013744, 0.003054, 0.064000, -0.160000, 0.976000, 0.587498, -7.654006, 48.992033, -0.144991, -0.082566, -3.116332

1497961191.096707, 0.017715, -0.012217, 0.001833, 0.096000, -0.176000, 0.960000, 0.561114, -7.657696, 48.991766, -0.145435, -0.083131, -3.110908

1497961191.110641, 0.018937, -0.015577, 0.000916, 0.064000, -0.160000, 0.944000, 0.540034, -7.660643, 48.991542, -0.145660, -0.083056, -3.106970

1497961191.124375, 0.018021, -0.014050, 0.003665, 0.064000, -0.160000, 0.944000, 0.523187, -7.662997, 48.991357, -0.145898, -0.082952, -3.103119

1497961191.138312, 0.018631, -0.013134, 0.003665, 0.096000, -0.128000, 0.960000, 0.564722, -7.772538, 48.973636, -0.145433, -0.083478, -3.109352

1497961191.151872, 0.018937, -0.011912, 0.002749, 0.064000, -0.160000, 0.960000, 0.597905, -7.860024, 48.959277, -0.145595, -0.083288, -3.107716

1497961191.165646, 0.024129, -0.017104, 0.003971, 0.064000, -0.160000, 0.960000, 0.624277, -7.872955, 48.956870, -0.145681, -0.083171, -3.106162

1497961191.179175, 0.019242, -0.014661, 0.000611, 0.080000, -0.160000, 0.960000, 0.645348, -7.883284, 48.954935, -0.145818, -0.083347, -3.105246

1497961191.192748, 0.020769, -0.015882, 0.000611, 0.064000, -0.144000, 0.960000, 0.662188, -7.891539, 48.953380, -0.145564, -0.083199, -3.110049

1497961191.206280, 0.025351, -0.011912, 0.003971, 0.064000, -0.144000, 0.960000, 0.639256, -8.012004, 48.934113, -0.145252, -0.082992, -3.115568

1497961191.220110, 0.023518, -0.014966, 0.000916, 0.064000, -0.160000, 0.976000, 0.620904, -8.108358, 48.918476, -0.145271, -0.082813, -3.116724

1497961191.233766, 0.021991, -0.014966, -0.000000, 0.080000, -0.144000, 0.944000, 0.643239, -8.042341, 48.929084, -0.145102, -0.083015, -3.120433

1497961191.247709, 0.017410, -0.014661, -0.000305, 0.080000, -0.144000, 0.944000, 0.661124, -7.989464, 48.937507, -0.144992, -0.083215, -3.123789

1497961191.261531, 0.014050, -0.016799, 0.001222, 0.080000, -0.160000, 0.976000, 0.601860, -7.983099, 48.939311, -0.145155, -0.083386, -3.123864

1497961191.275274, 0.018326, -0.017410, -0.000916, 0.080000, -0.160000, 0.976000, 0.554428, -7.977995, 48.940704, -0.145257, -0.083566, -3.123938

1497961191.289174, 0.013439, -0.013744, 0.003665, 0.096000, -0.128000, 0.960000, 0.516468, -7.973906, 48.941785, -0.144878, -0.084087, -3.130549

1497961191.302698, 0.020159, -0.013744, 0.005498, 0.080000, -0.144000, 0.976000, 0.486092, -7.970630, 48.942630, -0.144644, -0.084189, -3.134821

1497961191.316297, 0.021075, -0.013744, 0.005192, 0.080000, -0.144000, 0.976000, 0.461786, -7.968007, 48.943293, -0.144400, -0.084291, -3.138969

1497961191.329876, 0.015882, -0.013134, 0.004276, 0.064000, -0.176000, 0.960000, 0.497359, -7.926734, 48.949645, -0.144994, -0.084212, -3.131755

1497961191.343622, 0.021686, -0.017104, 0.003665, 0.064000, -0.144000, 0.960000, 0.525806, -7.893722, 48.954683, -0.144749, -0.084059, -3.135798

1497961191.357202, 0.019853, -0.011301, 0.003360, 0.064000, -0.144000, 0.960000, 0.548556, -7.867316, 48.958683, -0.144537, -0.083829, -3.139619

1497961191.371239, 0.017410, -0.014966, 0.001527, 0.048000, -0.144000, 0.944000, 0.603922, -7.888404, 48.954638, -0.144366, -0.083345, 3.139233

1497961191.385208, 0.023213, -0.017410, 0.000916, 0.064000, -0.144000, 0.976000, 0.648259, -7.905283, 48.951349, -0.144047, -0.083204, 3.134168

1497961191.399000, 0.021991, -0.017104, 0.001222, 0.064000, -0.144000, 0.976000, 0.647070, -7.865031, 48.957848, -0.143759, -0.083057, 3.129509

1497961191.412960, 0.019548, -0.010996, 0.001222, 0.064000, -0.144000, 0.944000, 0.646117, -7.832793, 48.963028, -0.143628, -0.082872, 3.127111

1497961191.426545, 0.018326, -0.010385, 0.002443, 0.064000, -0.160000, 0.960000, 0.645354, -7.806980, 48.967161, -0.143843, -0.082692, 3.130121

1497961191.440491, 0.019548, -0.013744, 0.002443, 0.064000, -0.160000, 0.960000, 0.644253, -7.761977, 48.974329, -0.144034, -0.082567, 3.133419

1497961191.454021, 0.023824, -0.014661, 0.007330, 0.080000, -0.144000, 0.960000, 0.643373, -7.726000, 48.980029, -0.143825, -0.082734, 3.131531

1497961191.467570, 0.026878, -0.017104, 0.005498, 0.080000, -0.144000, 0.960000, 0.661879, -7.706652, 48.982831, -0.143577, -0.082933, 3.129763

1497961191.481133, 0.022907, -0.013134, 0.000611, 0.064000, -0.160000, 0.944000, 0.676708, -7.691147, 48.985065, -0.143798, -0.082839, 3.134543

1497961191.495160, 0.016493, -0.011606, -0.001222, 0.064000, -0.144000, 0.960000, 0.688587, -7.678725, 48.986848, -0.143653, -0.082654, 3.132162

1497961191.508794, 0.021380, -0.013134, 0.003971, 0.064000, -0.144000, 0.960000, 0.660884, -7.683724, 48.986446, -0.143459, -0.082477, 3.129890

1497961191.522577, 0.019853, -0.013439, 0.003665, 0.064000, -0.144000, 0.976000, 0.638720, -7.687721, 48.986113, -0.143229, -0.082292, 3.126694

1497961191.536573, 0.022297, -0.017104, 0.003054, 0.064000, -0.160000, 0.960000, 0.620663, -7.723769, 48.980674, -0.143396, -0.082225, 3.130336

1497961191.550286, 0.018021, -0.014050, 0.002749, 0.064000, -0.160000, 0.960000, 0.606230, -7.752577, 48.976303, -0.143621, -0.082111, 3.133662

1497961191.564399, 0.022907, -0.017715, 0.004276, 0.064000, -0.160000, 0.960000, 0.594623, -7.811555, 48.967074, -0.143764, -0.082046, 3.136498

1497961191.577933, 0.021075, -0.014661, 0.000916, 0.064000, -0.144000, 0.960000, 0.585824, -7.865125, 48.958604, -0.143560, -0.081903, 3.132834

1497961191.591708, 0.026267, -0.016493, 0.001222, 0.064000, -0.144000, 0.960000, 0.578778, -7.908009, 48.951779, -0.143285, -0.081790, 3.128950

1497961191.605222, 0.024129, -0.015577, 0.002138, 0.080000, -0.192000, 0.928000, 0.609878, -7.885088, 48.955099, -0.144141, -0.082375, 3.140312

1497961191.619003, 0.021991, -0.012523, 0.004276, 0.080000, -0.144000, 0.976000, 0.634760, -7.866747, 48.957733, -0.143894, -0.082500, 3.136690

1497961191.632805, 0.019853, -0.014355, -0.000611, 0.080000, -0.144000, 0.976000, 0.598827, -7.863723, 48.958672, -0.143676, -0.082657, 3.133135

1497961191.646633, 0.020769, -0.016799, 0.001222, 0.064000, -0.192000, 0.944000, 0.570124, -7.861304, 48.959403, -0.144606, -0.082932, -3.136867

1497961191.660537, 0.018937, -0.015272, 0.000305, 0.064000, -0.192000, 0.944000, 0.547188, -7.859369, 48.959975, -0.145542, -0.083169, -3.124032

1497961191.674171, 0.019548, -0.016493, 0.002138, 0.064000, -0.144000, 0.944000, 0.566270, -7.903316, 48.952683, -0.145374, -0.083048, -3.127433

1497961191.688031, 0.019242, -0.015577, 0.002749, 0.064000, -0.160000, 0.960000, 0.581554, -7.938510, 48.946809, -0.145526, -0.082917, -3.126029

1497961191.701546, 0.019853, -0.014355, 0.000611, 0.064000, -0.160000, 0.960000, 0.667711, -7.876680, 48.955698, -0.145674, -0.082777, -3.124154

1497961191.715173, 0.021380, -0.014966, 0.003360, 0.048000, -0.128000, 0.944000, 0.736723, -7.827128, 48.962655, -0.144987, -0.082402, -3.136245

1497961191.728713, 0.020159, -0.011912, -0.000916, 0.064000, -0.144000, 0.976000, 0.791986, -7.787429, 48.968122, -0.144710, -0.082205, -3.140867

1497961191.742502, 0.018326, -0.012828, 0.001527, 0.064000, -0.144000, 0.976000, 0.742283, -7.793925, 48.967867, -0.144463, -0.082022, 3.137862

1497961191.756111, 0.018937, -0.013744, 0.002749, 0.064000, -0.160000, 0.928000, 0.702651, -7.799099, 48.967628, -0.144772, -0.081978, -3.140500

1497961191.769868, 0.022602, -0.016188, 0.002443, 0.064000, -0.112000, 0.976000, 0.727711, -7.783130, 48.969803, -0.143766, -0.082075, 3.128490

1497961191.783843, 0.023824, -0.011606, 0.003054, 0.064000, -0.112000, 0.976000, 0.747794, -7.770331, 48.971533, -0.142759, -0.082099, 3.114559

1497961191.797511, 0.023518, -0.016188, 0.001222, 0.064000, -0.160000, 0.960000, 0.763883, -7.760077, 48.972910, -0.142925, -0.082025, 3.118310

1497961191.811590, 0.020769, -0.014966, 0.004887, 0.064000, -0.160000, 0.944000, 0.740703, -7.797541, 48.967315, -0.143177, -0.081968, 3.122687

1497961191.825191, 0.015882, -0.014966, 0.000305, 0.064000, -0.160000, 0.944000, 0.722104, -7.827596, 48.962798, -0.143491, -0.081909, 3.126657

1497961191.838778, 0.023518, -0.012217, 0.001222, 0.064000, -0.160000, 0.960000, 0.706402, -7.805944, 48.966483, -0.143638, -0.081776, 3.129733

1497961191.852297, 0.026267, -0.015272, 0.003665, 0.064000, -0.160000, 0.960000, 0.693841, -7.788624, 48.969421, -0.143750, -0.081681, 3.132905

1497961191.866693, 0.026573, -0.018631, 0.002749, 0.064000, -0.144000, 0.976000, 0.683794, -7.774768, 48.971764, -0.143402, -0.081592, 3.128917

1497961191.880231, 0.018326, -0.014050, 0.001527, 0.064000, -0.176000, 0.960000, 0.637624, -7.805054, 48.967569, -0.143979, -0.081616, 3.137554

1497961191.894070, 0.016493, -0.012523, 0.003360, 0.064000, -0.176000, 0.960000, 0.600810, -7.829197, 48.964181, -0.144564, -0.081609, -3.137402

1497961191.907895, 0.025962, -0.013439, 0.001527, 0.080000, -0.160000, 0.976000, 0.628044, -7.810448, 48.966833, -0.144575, -0.081779, -3.136171

1497961191.921705, 0.025962, -0.014966, 0.002749, 0.080000, -0.144000, 0.960000, 0.649873, -7.795419, 48.968943, -0.144316, -0.081977, -3.138798

1497961191.935669, 0.022297, -0.016493, 0.002443, 0.080000, -0.144000, 0.960000, 0.667361, -7.783376, 48.970623, -0.144107, -0.082194, -3.141316

1497961191.949249, 0.023213, -0.018021, 0.003054, 0.064000, -0.144000, 0.960000, 0.681368, -7.773729, 48.971963, -0.143873, -0.082091, 3.138689

1497961191.963029, 0.020769, -0.013744, 0.001527, 0.064000, -0.160000, 0.944000, 0.692584, -7.766004, 48.973031, -0.144107, -0.082014, -3.140410

1497961191.976552, 0.019548, -0.009468, 0.002443, 0.064000, -0.160000, 0.944000, 0.737905, -7.771398, 48.971514, -0.144356, -0.081876, -3.136375

1497961191.990087, 0.021686, -0.013744, -0.001222, 0.064000, -0.128000, 0.960000, 0.774126, -7.775705, 48.970271, -0.143764, -0.081798, 3.137517

1497961192.003647, 0.019242, -0.011912, 0.003665, 0.064000, -0.144000, 0.912000, 0.785720, -7.864146, 48.955961, -0.143765, -0.081690, 3.136669

1497961192.017574, 0.022297, -0.018326, 0.005803, 0.064000, -0.144000, 0.912000, 0.795011, -7.935015, 48.944374, -0.143718, -0.081668, 3.135335

1497961192.031207, 0.025045, -0.014966, 0.004581, 0.064000, -0.160000, 0.960000, 0.802454, -7.991785, 48.935015, -0.143831, -0.081552, 3.136871

1497961192.045086, 0.019242, -0.014355, 0.001527, 0.064000, -0.160000, 0.960000, 0.770685, -7.919190, 48.947326, -0.144015, -0.081446, 3.138909

1497961192.059090, 0.020769, -0.012523, 0.001222, 0.048000, -0.160000, 0.928000, 0.745284, -7.861134, 48.957077, -0.144359, -0.081091, -3.137954

1497961192.072918, 0.020464, -0.014050, 0.006414, 0.064000, -0.144000, 0.928000, 0.705846, -7.826361, 48.963232, -0.144271, -0.080998, -3.139603

1497961192.086914, 0.021075, -0.012828, 0.004581, 0.064000, -0.144000, 0.928000, 0.674356, -7.798591, 48.968107, -0.144172, -0.080896, -3.141017

1497961192.100444, 0.019853, -0.010996, 0.002749, 0.064000, -0.144000, 0.976000, 0.649203, -7.776406, 48.971975, -0.143926, -0.080709, 3.138018

1497961192.114138, 0.017715, -0.016799, 0.003665, 0.064000, -0.160000, 0.976000, 0.630324, -7.810692, 48.966765, -0.144080, -0.080619, 3.139833

1497961192.127661, 0.019242, -0.015882, 0.003054, 0.064000, -0.160000, 0.976000, 0.615182, -7.838186, 48.962564, -0.144211, -0.080515, 3.141377

1497961192.141338, 0.019242, -0.013439, 0.001222, 0.080000, -0.144000, 0.976000, 0.676100, -7.811074, 48.966093, -0.144002, -0.080695, 3.137977

1497961192.154907, 0.019242, -0.016493, 0.003971, 0.080000, -0.176000, 0.960000, 0.724775, -7.789400, 48.968849, -0.144489, -0.081051, -3.138298

1497961192.168774, 0.021991, -0.014966, 0.003054, 0.080000, -0.176000, 0.960000, 0.763677, -7.772071, 48.971012, -0.144924, -0.081386, -3.131371

1497961192.182605, 0.021686, -0.017104, 0.002138, 0.048000, -0.160000, 0.976000, 0.776261, -7.776285, 48.970145, -0.145032, -0.080979, -3.128478

1497961192.196481, 0.018937, -0.014355, 0.003054, 0.048000, -0.192000, 0.960000, 0.786322, -7.779655, 48.969449, -0.146040, -0.081010, -3.111090

1497961192.210539, 0.017715, -0.014355, 0.002749, 0.048000, -0.192000, 0.960000, 0.814205, -7.777046, 48.969408, -0.147041, -0.081030, -3.093873

1497961192.224215, 0.024129, -0.016188, 0.003054, 0.064000, -0.160000, 0.944000, 0.836569, -7.774951, 48.969363, -0.147162, -0.080986, -3.090622

1497961192.238167, 0.018326, -0.017104, 0.003054, 0.064000, -0.160000, 0.944000, 0.854498, -7.773271, 48.969321, -0.147354, -0.080959, -3.087392

1497961192.251681, 0.021380, -0.015272, 0.001222, 0.064000, -0.144000, 0.944000, 0.775161, -7.780644, 48.969470, -0.147131, -0.080870, -3.090836

1497961192.265233, 0.020769, -0.013439, 0.001833, 0.080000, -0.144000, 0.960000, 0.711750, -7.786522, 48.969498, -0.146896, -0.081066, -3.094380

1497961192.278816, 0.022297, -0.016188, 0.001527, 0.080000, -0.144000, 0.960000, 0.697575, -7.748639, 48.975711, -0.146645, -0.081296, -3.097618

1497961192.292550, 0.025656, -0.015272, 0.001222, 0.064000, -0.176000, 0.960000, 0.686255, -7.718385, 48.980648, -0.147052, -0.081324, -3.089412

1497961192.306102, 0.025351, -0.016188, 0.003054, 0.064000, -0.128000, 0.928000, 0.677213, -7.694217, 48.984576, -0.146474, -0.081308, -3.097008

1497961192.319984, 0.015882, -0.012523, 0.000916, 0.064000, -0.128000, 0.928000, 0.670776, -7.831806, 48.962855, -0.146020, -0.081254, -3.105378

1497961192.333951, 0.017410, -0.013744, 0.000916, 0.048000, -0.144000, 0.944000, 0.665616, -7.941959, 48.945179, -0.145803, -0.080806, -3.111113

1497961192.347724, 0.019548, -0.014050, 0.000611, 0.064000, -0.144000, 0.944000, 0.717214, -7.921853, 48.947708, -0.145625, -0.080704, -3.115116

1497961192.361694, 0.022907, -0.012523, 0.003360, 0.064000, -0.144000, 0.944000, 0.758546, -7.905739, 48.949690, -0.145405, -0.080581, -3.118935

1497961192.376821, 0.025045, -0.011912, 0.001833, 0.080000, -0.160000, 0.944000, 0.679547, -7.826021, 48.963659, -0.145485, -0.080832, -3.116651

1497961192.390498, 0.020769, -0.014966, 0.003360, 0.080000, -0.144000, 0.960000, 0.616455, -7.762326, 48.974632, -0.145282, -0.081047, -3.119445

1497961192.404275, 0.021075, -0.016799, 0.003665, 0.080000, -0.144000, 0.960000, 0.566049, -7.711423, 48.983281, -0.145077, -0.081283, -3.121850

1497961192.417874, 0.021380, -0.016799, 0.000611, 0.064000, -0.160000, 0.944000, 0.655696, -7.716032, 48.981437, -0.145279, -0.081257, -3.117911

1497961192.431605, 0.018326, -0.017104, 0.001222, 0.064000, -0.144000, 0.928000, 0.727488, -7.719704, 48.979845, -0.145201, -0.081212, -3.119226

1497961192.445276, 0.017715, -0.015882, 0.002443, 0.064000, -0.144000, 0.928000, 0.749132, -7.771594, 48.971312, -0.145132, -0.081147, -3.120907

1497961192.458863, 0.020769, -0.014661, -0.000000, 0.080000, -0.160000, 0.944000, 0.766506, -7.813242, 48.964415, -0.145310, -0.081412, -3.118465

1497961192.472483, 0.014661, -0.017104, 0.005803, 0.080000, -0.160000, 0.944000, 0.780443, -7.846648, 48.958853, -0.145573, -0.081690, -3.116177

1497961192.486158, 0.022602, -0.017715, 0.003360, 0.080000, -0.176000, 0.976000, 0.715825, -7.839287, 48.961020, -0.145933, -0.081980, -3.110821

1497961192.499608, 0.017715, -0.017410, 0.003665, 0.080000, -0.160000, 0.960000, 0.664222, -7.833400, 48.962689, -0.146091, -0.082213, -3.109462

1497961192.512988, 0.018631, -0.011606, 0.003054, 0.080000, -0.160000, 0.960000, 0.679458, -7.820156, 48.964597, -0.146233, -0.082366, -3.108065

1497961192.526352, 0.025656, -0.015272, 0.002138, 0.080000, -0.128000, 0.976000, 0.691660, -7.809548, 48.966119, -0.145583, -0.082599, -3.116524

1497961192.539712, 0.021991, -0.015882, 0.000305, 0.064000, -0.144000, 0.960000, 0.701430, -7.801053, 48.967334, -0.145331, -0.082463, -3.120478

1497961192.553062, 0.018937, -0.012523, 0.000611, 0.064000, -0.144000, 0.960000, 0.672067, -7.812456, 48.965928, -0.145124, -0.082285, -3.124402

1497961192.566415, 0.020769, -0.015882, 0.003665, 0.064000, -0.144000, 0.960000, 0.648564, -7.821580, 48.964788, -0.144902, -0.082148, -3.128239

1497961192.579768, 0.020464, -0.016493, 0.002443, 0.064000, -0.144000, 0.960000, 0.629531, -7.807530, 48.967279, -0.144688, -0.082024, -3.131883

1497961192.593115, 0.021686, -0.014355, 0.001833, 0.064000, -0.144000, 0.928000, 0.614309, -7.796292, 48.969263, -0.144583, -0.081919, -3.133439

1497961192.606465, 0.023213, -0.012828, 0.000916, 0.064000, -0.160000, 0.960000, 0.602135, -7.787304, 48.970844, -0.144714, -0.081786, -3.130794

1497961192.619819, 0.022297, -0.012217, 0.003665, 0.064000, -0.160000, 0.960000, 0.629013, -7.773628, 48.972679, -0.144858, -0.081642, -3.128036

1497961192.633169, 0.019242, -0.012217, 0.003360, 0.064000, -0.176000, 0.960000, 0.650480, -7.762702, 48.974132, -0.145398, -0.081625, -3.119593

1497961192.646518, 0.019548, -0.015272, 0.001833, 0.064000, -0.128000, 0.976000, 0.687046, -7.745415, 48.976370, -0.144770, -0.081564, -3.129549

1497961192.659868, 0.023213, -0.014661, 0.001833, 0.064000, -0.128000, 0.976000, 0.716335, -7.731564, 48.978138, -0.144107, -0.081492, -3.139315

1497961192.673214, 0.019242, -0.013134, 0.000305, 0.048000, -0.160000, 0.976000, 0.739790, -7.720470, 48.979540, -0.144283, -0.081036, -3.135699

1497961192.686613, 0.019242, -0.015882, 0.000305, 0.048000, -0.160000, 0.976000, 0.739253, -7.759621, 48.973361, -0.144446, -0.080619, -3.132614

1497961192.700311, 0.022907, -0.013439, -0.000000, 0.032000, -0.144000, 0.992000, 0.738824, -7.790902, 48.968400, -0.143805, -0.079860, 3.136889

1497961192.713956, 0.020769, -0.013134, 0.003054, 0.064000, -0.176000, 0.960000, 0.737960, -7.773310, 48.971209, -0.144336, -0.079910, -3.137297

1497961192.727983, 0.021075, -0.014966, 0.005192, 0.064000, -0.176000, 0.960000, 0.737270, -7.759264, 48.973447, -0.144846, -0.079980, -3.128353

1497961192.741548, 0.014050, -0.015272, -0.000916, 0.064000, -0.160000, 0.944000, 0.736719, -7.748045, 48.975232, -0.145146, -0.079963, -3.124419

1497961192.755064, 0.021075, -0.010996, 0.004887, 0.064000, -0.160000, 0.960000, 0.755341, -7.763461, 48.972507, -0.145293, -0.079840, -3.121552

1497961192.768454, 0.019548, -0.013134, 0.004887, 0.064000, -0.160000, 0.960000, 0.770244, -7.775796, 48.970317, -0.145459, -0.079744, -3.118820

1497961192.781956, 0.022602, -0.016799, 0.006720, 0.080000, -0.160000, 0.960000, 0.801051, -7.770754, 48.970623, -0.145561, -0.080015, -3.116803

1497961192.795383, 0.017410, -0.013134, 0.000305, 0.048000, -0.160000, 0.976000, 0.825721, -7.766714, 48.970855, -0.145716, -0.079579, -3.114023

1497961192.808844, 0.017715, -0.013744, 0.001222, 0.048000, -0.160000, 0.976000, 0.845475, -7.763478, 48.971031, -0.145863, -0.079158, -3.111206

1497961192.822353, 0.019853, -0.012217, 0.000611, 0.064000, -0.128000, 0.976000, 0.823541, -7.754597, 48.972812, -0.145225, -0.079118, -3.121871

1497961192.835804, 0.023824, -0.017410, 0.003360, 0.064000, -0.128000, 0.976000, 0.806010, -7.747498, 48.974227, -0.144553, -0.079135, -3.132169

1497961192.849368, 0.019853, -0.012217, 0.000305, 0.064000, -0.160000, 0.944000, 0.792974, -7.751384, 48.973825, -0.144782, -0.079095, -3.128085

1497961192.862805, 0.023213, -0.013744, 0.001527, 0.048000, -0.128000, 0.944000, 0.782529, -7.754498, 48.973500, -0.144118, -0.078767, -3.139773

1497961192.876385, 0.022907, -0.013134, 0.004276, 0.048000, -0.128000, 0.944000, 0.774161, -7.756993, 48.973238, -0.143476, -0.078429, 3.132019

1497961192.889828, 0.021686, -0.010690, 0.004276, 0.064000, -0.160000, 0.960000, 0.767143, -7.755791, 48.973538, -0.143650, -0.078342, 3.135486

1497961192.903385, 0.021991, -0.015272, 0.004276, 0.048000, -0.144000, 0.944000, 0.761529, -7.754829, 48.973778, -0.143476, -0.077961, 3.132470

1497961192.916831, 0.017715, -0.014355, 0.001527, 0.048000, -0.144000, 0.944000, 0.756724, -7.750864, 48.974480, -0.143363, -0.077580, 3.129529

1497961192.930323, 0.018631, -0.013134, 0.003054, 0.064000, -0.176000, 0.944000, 0.752884, -7.747694, 48.975041, -0.143980, -0.077733, 3.139656

1497961192.943790, 0.022907, -0.014050, 0.005192, 0.064000, -0.176000, 0.944000, 0.749813, -7.745160, 48.975489, -0.144532, -0.077883, -3.133569

1497961192.957293, 0.018326, -0.014050, 0.001222, 0.064000, -0.160000, 0.976000, 0.691386, -7.776237, 48.971424, -0.144664, -0.077816, -3.131711

1497961192.970745, 0.019548, -0.015577, 0.005498, 0.064000, -0.160000, 0.976000, 0.644703, -7.801057, 48.968113, -0.144781, -0.077758, -3.130061

1497961192.984245, 0.020464, -0.016188, 0.003360, 0.064000, -0.160000, 0.976000, 0.682868, -7.818753, 48.964774, -0.144879, -0.077713, -3.128587

1497961192.997680, 0.021686, -0.015272, 0.000305, 0.080000, -0.144000, 0.944000, 0.713489, -7.832947, 48.962068, -0.144732, -0.078021, -3.130906

1497961193.011186, 0.021075, -0.013134, 0.002749, 0.048000, -0.144000, 0.960000, 0.738044, -7.844327, 48.959882, -0.144458, -0.077607, -3.136692

1497961193.024674, 0.019853, -0.018021, 0.003054, 0.048000, -0.144000, 0.960000, 0.719623, -7.843808, 48.960240, -0.144210, -0.077263, 3.140900

1497961193.038187, 0.018021, -0.016493, 0.002443, 0.080000, -0.160000, 0.928000, 0.704896, -7.843393, 48.960521, -0.144494, -0.077668, -3.138870

1497961193.051619, 0.018631, -0.013744, 0.003665, 0.064000, -0.176000, 0.960000, 0.692876, -7.821713, 48.964160, -0.145032, -0.077751, -3.130467

1497961193.065126, 0.017715, -0.014966, 0.000611, 0.064000, -0.176000, 0.960000, 0.683270, -7.804386, 48.967060, -0.145567, -0.077851, -3.122184

1497961193.078558, 0.018631, -0.015577, 0.003054, 0.080000, -0.160000, 0.944000, 0.675592, -7.790536, 48.969372, -0.145766, -0.078185, -3.119617

1497961193.092017, 0.024435, -0.017410, 0.001527, 0.080000, -0.160000, 0.944000, 0.689459, -7.777349, 48.971275, -0.145884, -0.078541, -3.117031

1497961193.105450, 0.025045, -0.017410, 0.004581, 0.064000, -0.160000, 0.960000, 0.700589, -7.766764, 48.972797, -0.145963, -0.078526, -3.114396

1497961193.118907, 0.023213, -0.015272, 0.004276, 0.064000, -0.160000, 0.976000, 0.689416, -7.760434, 48.973959, -0.146005, -0.078452, -3.112754

1497961193.132338, 0.018021, -0.014355, 0.003054, 0.064000, -0.160000, 0.976000, 0.680493, -7.755379, 48.974884, -0.146113, -0.078369, -3.111131

1497961193.145767, 0.021380, -0.014050, 0.004887, 0.064000, -0.160000, 0.960000, 0.673365, -7.751341, 48.975622, -0.146235, -0.078312, -3.108528

1497961193.159186, 0.019548, -0.013134, 0.002138, 0.080000, -0.160000, 0.960000, 0.685378, -7.738499, 48.977486, -0.146357, -0.078570, -3.106672

1497961193.172582, 0.023518, -0.016188, 0.006109, 0.080000, -0.160000, 0.960000, 0.694959, -7.728258, 48.978968, -0.146430, -0.078855, -3.104728

1497961193.186023, 0.018326, -0.014355, 0.002443, 0.080000, -0.144000, 0.960000, 0.741104, -7.735893, 48.977086, -0.146247, -0.079100, -3.107705

1497961193.199445, 0.021380, -0.013439, 0.004276, 0.080000, -0.144000, 0.960000, 0.778081, -7.742007, 48.975547, -0.146029, -0.079325, -3.110664

1497961193.212886, 0.021075, -0.015577, 0.001527, 0.080000, -0.160000, 0.960000, 0.807703, -7.746901, 48.974293, -0.146136, -0.079597, -3.108730

1497961193.226327, 0.015577, -0.016188, -0.000000, 0.064000, -0.144000, 0.960000, 0.737758, -7.723371, 48.979113, -0.145963, -0.079528, -3.112284

1497961193.239761, 0.020159, -0.014050, 0.003054, 0.064000, -0.144000, 0.960000, 0.681867, -7.704557, 48.982886, -0.145739, -0.079427, -3.115524

1497961193.253283, 0.021075, -0.016493, 0.004887, 0.064000, -0.160000, 0.960000, 0.729803, -7.689315, 48.984590, -0.145877, -0.079389, -3.112278

1497961193.266738, 0.015272, -0.009774, 0.001222, 0.064000, -0.144000, 0.960000, 0.768120, -7.677126, 48.985916, -0.145717, -0.079239, -3.115426

1497961193.280215, 0.017410, -0.010079, 0.000611, 0.064000, -0.144000, 0.960000, 0.798753, -7.667377, 48.986953, -0.145532, -0.079097, -3.118471

1497961193.293684, 0.019242, -0.012828, 0.001527, 0.080000, -0.144000, 0.976000, 0.786518, -7.680903, 48.985032, -0.145303, -0.079295, -3.121655

1497961193.307124, 0.018631, -0.014050, 0.006720, 0.080000, -0.144000, 0.976000, 0.776727, -7.691726, 48.983490, -0.145093, -0.079496, -3.124764

1497961193.320682, 0.025045, -0.015882, 0.003971, 0.064000, -0.160000, 0.960000, 0.768488, -7.733353, 48.977065, -0.145188, -0.079451, -3.121638

1497961193.334122, 0.022297, -0.014050, 0.001222, 0.080000, -0.144000, 0.976000, 0.761901, -7.766625, 48.971903, -0.144926, -0.079658, -3.125262

1497961193.347669, 0.018631, -0.013439, -0.001833, 0.080000, -0.144000, 0.976000, 0.756635, -7.793222, 48.967759, -0.144712, -0.079860, -3.129010

1497961193.361103, 0.022602, -0.014050, 0.004276, 0.064000, -0.160000, 0.944000, 0.771319, -7.781555, 48.969386, -0.144908, -0.079816, -3.125200

1497961193.374661, 0.019853, -0.014966, 0.003665, 0.064000, -0.144000, 0.944000, 0.783073, -7.772214, 48.970683, -0.144762, -0.079740, -3.127797

1497961193.388088, 0.018937, -0.013134, 0.000305, 0.064000, -0.144000, 0.944000, 0.793319, -7.828567, 48.961541, -0.144628, -0.079644, -3.130845

1497961193.401635, 0.022297, -0.014355, 0.004581, 0.064000, -0.160000, 0.960000, 0.801533, -7.873742, 48.954162, -0.144763, -0.079565, -3.128684

1497961193.415064, 0.019853, -0.015882, 0.002138, 0.064000, -0.160000, 0.992000, 0.808116, -7.909943, 48.948218, -0.144807, -0.079446, -3.129009

1497961193.428623, 0.022602, -0.018326, 0.000916, 0.064000, -0.160000, 0.992000, 0.831422, -7.878062, 48.952969, -0.144811, -0.079368, -3.129061

1497961193.442091, 0.010996, -0.013134, -0.000916, 0.080000, -0.128000, 0.976000, 0.850066, -7.852554, 48.956747, -0.144390, -0.079636, -3.137726

1497961193.455591, 0.017104, -0.015272, -0.000916, 0.080000, -0.128000, 0.976000, 0.882134, -7.801120, 48.964402, -0.143894, -0.079922, 3.137174

1497961193.469050, 0.017104, -0.012828, 0.001833, 0.064000, -0.160000, 0.944000, 0.907714, -7.760083, 48.970455, -0.144180, -0.079876, -3.141505

1497961193.482526, 0.022907, -0.015577, 0.003971, 0.080000, -0.144000, 0.944000, 0.928130, -7.727324, 48.975252, -0.144031, -0.080141, 3.140185

1497961193.495993, 0.019853, -0.012217, 0.001222, 0.080000, -0.144000, 0.944000, 0.872554, -7.774608, 48.968790, -0.143921, -0.080360, 3.138415

1497961193.509478, 0.018631, -0.010690, 0.003054, 0.064000, -0.144000, 0.960000, 0.827971, -7.812526, 48.963529, -0.143753, -0.080195, 3.134782

1497961193.522933, 0.016188, -0.013744, 0.001222, 0.080000, -0.160000, 0.928000, 0.810494, -7.821545, 48.962382, -0.144073, -0.080512, 3.138526

1497961193.536438, 0.023518, -0.011606, 0.005498, 0.080000, -0.160000, 0.928000, 0.796497, -7.828766, 48.961457, -0.144294, -0.080785, -3.140993

1497961193.549872, 0.022907, -0.014355, 0.004887, 0.080000, -0.160000, 0.944000, 0.785290, -7.834547, 48.960713, -0.144467, -0.081046, -3.138198

1497961193.563354, 0.021075, -0.014661, 0.003971, 0.080000, -0.160000, 0.944000, 0.812256, -7.771894, 48.970258, -0.144660, -0.081311, -3.135074

1497961193.576818, 0.017104, -0.014661, -0.001527, 0.080000, -0.144000, 0.928000, 0.833783, -7.721866, 48.977810, -0.144622, -0.081575, -3.135909

1497961193.590295, 0.023213, -0.015882, 0.001222, 0.048000, -0.144000, 0.960000, 0.852480, -7.788257, 48.966975, -0.144317, -0.081129, -3.141338

1497961193.603724, 0.021991, -0.018021, 0.003360, 0.048000, -0.144000, 0.960000, 0.867463, -7.841455, 48.958221, -0.144030, -0.080713, 3.135882

1497961193.617234, 0.020159, -0.010690, 0.001833, 0.064000, -0.128000, 0.944000, 0.879466, -7.884068, 48.951162, -0.143522, -0.080622, 3.126678

1497961193.630664, 0.019548, -0.014661, 0.001833, 0.048000, -0.176000, 0.960000, 0.889397, -7.809440, 48.962944, -0.144203, -0.080445, 3.139823

1497961193.644148, 0.020464, -0.015577, 0.001527, 0.048000, -0.176000, 0.960000, 0.897352, -7.749631, 48.972301, -0.144861, -0.080286, -3.129937

1497961193.657568, 0.024129, -0.013744, 0.003054, 0.080000, -0.144000, 0.944000, 0.791328, -7.731953, 48.976923, -0.144681, -0.080519, -3.131641

1497961193.671028, 0.023824, -0.014661, 0.002749, 0.080000, -0.144000, 0.944000, 0.706559, -7.717794, 48.980452, -0.144508, -0.080761, -3.133190

1497961193.684465, 0.022602, -0.014050, 0.002138, 0.096000, -0.144000, 0.976000, 0.638777, -7.706455, 48.983168, -0.144274, -0.081262, -3.135570

1497961193.697905, 0.017410, -0.015577, 0.003971, 0.064000, -0.160000, 0.960000, 0.677754, -7.700374, 48.983601, -0.144494, -0.081181, -3.132092

1497961193.711307, 0.021991, -0.015577, 0.001833, 0.064000, -0.160000, 0.960000, 0.708946, -7.695504, 48.983925, -0.144648, -0.081105, -3.128632

1497961193.724781, 0.023824, -0.016799, 0.002138, 0.080000, -0.160000, 0.976000, 0.752368, -7.746012, 48.975315, -0.144696, -0.081326, -3.127117

1497961193.738198, 0.022297, -0.014050, 0.001833, 0.064000, -0.160000, 0.928000, 0.787101, -7.786405, 48.968364, -0.144957, -0.081296, -3.122431

1497961193.751635, 0.017715, -0.018021, 0.001222, 0.064000, -0.160000, 0.928000, 0.814885, -7.818710, 48.962761, -0.145271, -0.081316, -3.118030

1497961193.765075, 0.024435, -0.015577, 0.002749, 0.064000, -0.160000, 0.976000, 0.799372, -7.801929, 48.965694, -0.145310, -0.081192, -3.116588

1497961193.778525, 0.023518, -0.013134, 0.001833, 0.080000, -0.144000, 0.976000, 0.786978, -7.788521, 48.968029, -0.145027, -0.081352, -3.120466

1497961193.791956, 0.023824, -0.010079, 0.001222, 0.080000, -0.144000, 0.976000, 0.813367, -7.825572, 48.961690, -0.144744, -0.081468, -3.124536

1497961193.805401, 0.021075, -0.015577, 0.003054, 0.048000, -0.192000, 0.944000, 0.834421, -7.855129, 48.956603, -0.145798, -0.081558, -3.106763

1497961193.818832, 0.025351, -0.015272, 0.004276, 0.048000, -0.192000, 0.944000, 0.851228, -7.878722, 48.952522, -0.146776, -0.081619, -3.089343

1497961193.832256, 0.024129, -0.016799, 0.004581, 0.080000, -0.160000, 0.944000, 0.884431, -7.835041, 48.958944, -0.146887, -0.081882, -3.087502

1497961193.845708, 0.019853, -0.013744, -0.000305, 0.080000, -0.144000, 0.960000, 0.911026, -7.800045, 48.964044, -0.146667, -0.082064, -3.091389

1497961193.859126, 0.018937, -0.010690, 0.003054, 0.080000, -0.144000, 0.960000, 0.858468, -7.811603, 48.963151, -0.146468, -0.082196, -3.095186

1497961193.872549, 0.018631, -0.011912, 0.002749, 0.048000, -0.144000, 0.960000, 0.816363, -7.820855, 48.962394, -0.146169, -0.081687, -3.101680

1497961193.885988, 0.015882, -0.013439, 0.003360, 0.064000, -0.144000, 0.960000, 0.782640, -7.828261, 48.961761, -0.145984, -0.081533, -3.106223

1497961193.899414, 0.020159, -0.012523, 0.003054, 0.064000, -0.144000, 0.960000, 0.772834, -7.857397, 48.957250, -0.145745, -0.081370, -3.110894

1497961193.912845, 0.021380, -0.010385, 0.004887, 0.064000, -0.144000, 0.960000, 0.765008, -7.880647, 48.953636, -0.145496, -0.081179, -3.115620

1497961193.926282, 0.021686, -0.014966, 0.003360, 0.064000, -0.144000, 0.960000, 0.778577, -7.894098, 48.951254, -0.145247, -0.081053, -3.120390

1497961193.939751, 0.023213, -0.014661, 0.002443, 0.064000, -0.144000, 0.976000, 0.789449, -7.904874, 48.949341, -0.144922, -0.080913, -3.126198

1497961193.953196, 0.018326, -0.012828, 0.002138, 0.064000, -0.160000, 0.960000, 0.798156, -7.913504, 48.947805, -0.145102, -0.080787, -3.124493

1497961193.966718, 0.019853, -0.010690, 0.002138, 0.064000, -0.160000, 0.960000, 0.786204, -7.935283, 48.944473, -0.145255, -0.080635, -3.123012

1497961193.980191, 0.018326, -0.010996, 0.002138, 0.064000, -0.144000, 0.944000, 0.776644, -7.952703, 48.941798, -0.145111, -0.080489, -3.127081

1497961193.993700, 0.023213, -0.011912, 0.002443, 0.080000, -0.144000, 0.928000, 0.805564, -7.905786, 48.948931, -0.144989, -0.080721, -3.129112

1497961194.007163, 0.022297, -0.014355, 0.003054, 0.080000, -0.144000, 0.928000, 0.828670, -7.868292, 48.954587, -0.144883, -0.080979, -3.130880

1497961194.020683, 0.016493, -0.016493, 0.002443, 0.064000, -0.176000, 0.960000, 0.847137, -7.838322, 48.959078, -0.145454, -0.081038, -3.122291

1497961194.034156, 0.016493, -0.016799, 0.001527, 0.064000, -0.176000, 0.960000, 0.863014, -7.805931, 48.963976, -0.146014, -0.081100, -3.113610

1497961194.047652, 0.019548, -0.011606, 0.003054, 0.064000, -0.160000, 0.976000, 0.875736, -7.779973, 48.967881, -0.146103, -0.080929, -3.112012

1497961194.061119, 0.021991, -0.012828, 0.002138, 0.080000, -0.128000, 0.944000, 0.848118, -7.752883, 48.972663, -0.145602, -0.081187, -3.118992

1497961194.074589, 0.016799, -0.012828, 0.001222, 0.080000, -0.128000, 0.944000, 0.826032, -7.731216, 48.976466, -0.145177, -0.081438, -3.125686

1497961194.088112, 0.022907, -0.016188, 0.002443, 0.080000, -0.160000, 0.976000, 0.808368, -7.713886, 48.979493, -0.145225, -0.081645, -3.123996

1497961194.101560, 0.022602, -0.020159, 0.004581, 0.064000, -0.144000, 0.960000, 0.775936, -7.739445, 48.975986, -0.144981, -0.081577, -3.127351

1497961194.115099, 0.020159, -0.012523, 0.000305, 0.064000, -0.144000, 0.960000, 0.749981, -7.759895, 48.973154, -0.144766, -0.081420, -3.130838

1497961194.128554, 0.021380, -0.015272, -0.000000, 0.064000, -0.144000, 0.960000, 0.803056, -7.772875, 48.970254, -0.144541, -0.081301, -3.134427

1497961194.142079, 0.022907, -0.016799, 0.002443, 0.064000, -0.144000, 0.944000, 0.845492, -7.783247, 48.967892, -0.144360, -0.081220, -3.137002

1497961194.155518, 0.023518, -0.014050, 0.003971, 0.064000, -0.144000, 0.944000, 0.879425, -7.791536, 48.965976, -0.144178, -0.081100, -3.139613

1497961194.169084, 0.022297, -0.016188, 0.005192, 0.032000, -0.144000, 0.960000, 0.850889, -7.834466, 48.959630, -0.143717, -0.080337, 3.132523

1497961194.182506, 0.016799, -0.013134, 0.003054, 0.032000, -0.144000, 0.960000, 0.828071, -7.868788, 48.954517, -0.143338, -0.079548, 3.121295

1497961194.196099, 0.020464, -0.015272, 0.005192, 0.048000, -0.160000, 0.944000, 0.846506, -7.892887, 48.950322, -0.143638, -0.079217, 3.126582

1497961194.209520, 0.019548, -0.012828, 0.002138, 0.080000, -0.160000, 0.944000, 0.861237, -7.912143, 48.946956, -0.143864, -0.079494, 3.129238

1497961194.223059, 0.022297, -0.013134, 0.003360, 0.080000, -0.160000, 0.944000, 0.873012, -7.927534, 48.944257, -0.144049, -0.079766, 3.131772

1497961194.236471, 0.025351, -0.014050, 0.004276, 0.064000, -0.144000, 0.976000, 0.919451, -7.921704, 48.944351, -0.143729, -0.079635, 3.126175

1497961194.249999, 0.025656, -0.018631, 0.003360, 0.080000, -0.144000, 0.992000, 0.956584, -7.917037, 48.944394, -0.143403, -0.079872, 3.121312

1497961194.263428, 0.019853, -0.017715, 0.000611, 0.080000, -0.144000, 0.992000, 0.985874, -7.910055, 48.944942, -0.143159, -0.080094, 3.116502

1497961194.277018, 0.019548, -0.017104, 0.001527, 0.080000, -0.160000, 0.960000, 0.972358, -7.904591, 48.946095, -0.143340, -0.080378, 3.118666

1497961194.290448, 0.018937, -0.015577, 0.003665, 0.080000, -0.160000, 0.960000, 0.961554, -7.900222, 48.947014, -0.143531, -0.080629, 3.120836

1497961194.303981, 0.021991, -0.014661, 0.004887, 0.064000, -0.160000, 0.976000, 0.897140, -7.911647, 48.946392, -0.143637, -0.080506, 3.122307

1497961194.317438, 0.022907, -0.018631, 0.002749, 0.096000, -0.144000, 0.944000, 0.845677, -7.920765, 48.945833, -0.143513, -0.081130, 3.120591

1497961194.331000, 0.024129, -0.018326, 0.002749, 0.096000, -0.144000, 0.944000, 0.805820, -7.959035, 48.940297, -0.143373, -0.081739, 3.118746

1497961194.344450, 0.018937, -0.015577, 0.003360, 0.064000, -0.176000, 0.960000, 0.884689, -7.989406, 48.933986, -0.143945, -0.081769, 3.127052

1497961194.358026, 0.018021, -0.013744, 0.000305, 0.080000, -0.160000, 0.960000, 0.947878, -8.013723, 48.928826, -0.144131, -0.081967, 3.128265

1497961194.371486, 0.018631, -0.014966, 0.000305, 0.080000, -0.160000, 0.960000, 0.906946, -7.985965, 48.934140, -0.144308, -0.082176, 3.129623

1497961194.385011, 0.019242, -0.013439, 0.002138, 0.064000, -0.144000, 0.976000, 0.874106, -7.963691, 48.938368, -0.144050, -0.081996, 3.123816

1497961194.398472, 0.021075, -0.014355, 0.003054, 0.064000, -0.144000, 0.976000, 0.901520, -7.947384, 48.940521, -0.143778, -0.081828, 3.118201

1497961194.411958, 0.024740, -0.018631, 0.003054, 0.048000, -0.160000, 1.008000, 0.923407, -7.934363, 48.942226, -0.143698, -0.081357, 3.116430

1497961194.425419, 0.021686, -0.018021, -0.000916, 0.064000, -0.144000, 0.944000, 0.940888, -7.923961, 48.943578, -0.143543, -0.081293, 3.113189

1497961194.438913, 0.020159, -0.014355, 0.002138, 0.064000, -0.144000, 0.944000, 0.955473, -7.846789, 48.955727, -0.143419, -0.081180, 3.110667

1497961194.452378, 0.022602, -0.016493, 0.002138, 0.080000, -0.144000, 0.944000, 0.967141, -7.785029, 48.965357, -0.143286, -0.081434, 3.109385

1497961194.465866, 0.019242, -0.016188, -0.001222, 0.064000, -0.160000, 0.976000, 0.976705, -7.792939, 48.963909, -0.143440, -0.081338, 3.112114

1497961194.479320, 0.018631, -0.016799, 0.000611, 0.064000, -0.160000, 0.976000, 0.984360, -7.799270, 48.962748, -0.143600, -0.081247, 3.114764

1497961194.492793, 0.018937, -0.013744, 0.003360, 0.064000, -0.160000, 0.960000, 0.990486, -7.804336, 48.961817, -0.143813, -0.081148, 3.118452

1497961194.506268, 0.017104, -0.016493, 0.003054, 0.064000, -0.160000, 0.976000, 0.901776, -7.799052, 48.964373, -0.143987, -0.081049, 3.120939

1497961194.519748, 0.020159, -0.014966, 0.003665, 0.064000, -0.160000, 0.976000, 0.830940, -7.794813, 48.966302, -0.144115, -0.080931, 3.123360

1497961194.533199, 0.021380, -0.012828, 0.001222, 0.064000, -0.144000, 0.976000, 0.774311, -7.809421, 48.964902, -0.143850, -0.080769, 3.119099

1497961194.546713, 0.018937, -0.011301, 0.003360, 0.064000, -0.144000, 0.976000, 0.747813, -7.824248, 48.962947, -0.143623, -0.080586, 3.114882

1497961194.560170, 0.018021, -0.014661, 0.002138, 0.064000, -0.160000, 0.944000, 0.726622, -7.836102, 48.961370, -0.143901, -0.080546, 3.118973

1497961194.573674, 0.014050, -0.015272, -0.002443, 0.080000, -0.160000, 0.976000, 0.784041, -7.869844, 48.955072, -0.144087, -0.080767, 3.120376

1497961194.587178, 0.018021, -0.014661, 0.001833, 0.080000, -0.160000, 0.976000, 0.830026, -7.896858, 48.949964, -0.144221, -0.080965, 3.121647

1497961194.600714, 0.017715, -0.014355, 0.003665, 0.080000, -0.160000, 0.976000, 0.866387, -7.951238, 48.940530, -0.144357, -0.081149, 3.122574

1497961194.614152, 0.017410, -0.015882, 0.004276, 0.080000, -0.144000, 0.960000, 0.858548, -7.994827, 48.933566, -0.144227, -0.081361, 3.119067

1497961194.627626, 0.021380, -0.015577, 0.001527, 0.080000, -0.144000, 0.960000, 0.852278, -8.029687, 48.927968, -0.144043, -0.081570, 3.115391

1497961194.641053, 0.018631, -0.011912, 0.001222, 0.032000, -0.160000, 1.008000, 0.829344, -7.988939, 48.935031, -0.143935, -0.080689, 3.110089

1497961194.654557, 0.019548, -0.016799, 0.002749, 0.032000, -0.160000, 1.008000, 0.810977, -7.956302, 48.940656, -0.143847, -0.079891, 3.105892

1497961194.667993, 0.020464, -0.015882, 0.003971, 0.064000, -0.144000, 0.976000, 0.796270, -7.930166, 48.945140, -0.143599, -0.079783, 3.101034

1497961194.681482, 0.018631, -0.015882, 0.004887, 0.064000, -0.160000, 0.960000, 0.784496, -7.909241, 48.948715, -0.143811, -0.079729, 3.103925

1497961194.694911, 0.019242, -0.011912, 0.002138, 0.064000, -0.160000, 0.960000, 0.775072, -7.892491, 48.951569, -0.144008, -0.079630, 3.106842

1497961194.708357, 0.018937, -0.013439, 0.000611, 0.048000, -0.144000, 0.944000, 0.785753, -7.857762, 48.956986, -0.143854, -0.079204, 3.103122

1497961194.721780, 0.014661, -0.011912, 0.000305, 0.064000, -0.160000, 0.944000, 0.794295, -7.829985, 48.961298, -0.144169, -0.079162, 3.107557

1497961194.735225, 0.019242, -0.013439, 0.001527, 0.064000, -0.160000, 0.944000, 0.801127, -7.807765, 48.964735, -0.144420, -0.079140, 3.112104

1497961194.748647, 0.017104, -0.017410, 0.003971, 0.064000, -0.160000, 0.944000, 0.769614, -7.919555, 48.947284, -0.144692, -0.079152, 3.115688

1497961194.762102, 0.017715, -0.018326, 0.001527, 0.064000, -0.160000, 0.944000, 0.744403, -8.008941, 48.933128, -0.144943, -0.079171, 3.118446

1497961194.775534, 0.021686, -0.014050, -0.002443, 0.064000, -0.160000, 0.944000, 0.761125, -7.986984, 48.936459, -0.145133, -0.079143, 3.121276

1497961194.788981, 0.024129, -0.015577, 0.003665, 0.064000, -0.128000, 0.960000, 0.774498, -7.969422, 48.939112, -0.144509, -0.079141, 3.111336

1497961194.802408, 0.021991, -0.015882, 0.001833, 0.064000, -0.128000, 0.960000, 0.785194, -7.955375, 48.941227, -0.143925, -0.079142, 3.101622

1497961194.815847, 0.017410, -0.015272, -0.000305, 0.064000, -0.144000, 0.960000, 0.793653, -7.980160, 48.937056, -0.143769, -0.079066, 3.097430

1497961194.829274, 0.021380, -0.012217, 0.002138, 0.048000, -0.160000, 0.960000, 0.800419, -7.999978, 48.933710, -0.143959, -0.078655, 3.100237

1497961194.842703, 0.017410, -0.016493, 0.002749, 0.048000, -0.160000, 0.960000, 0.805740, -7.922547, 48.946218, -0.144211, -0.078317, 3.103955

1497961194.856157, 0.020159, -0.014966, 0.001527, 0.064000, -0.160000, 0.944000, 0.809993, -7.860616, 48.956132, -0.144446, -0.078328, 3.108176

1497961194.869582, 0.018326, -0.016799, -0.001222, 0.064000, -0.144000, 0.960000, 0.813394, -7.811080, 48.964004, -0.144276, -0.078292, 3.105137

1497961194.883008, 0.021991, -0.016188, 0.002138, 0.064000, -0.144000, 0.960000, 0.816687, -7.813890, 48.963501, -0.144064, -0.078243, 3.102175

1497961194.896421, 0.025045, -0.017410, 0.001222, 0.064000, -0.144000, 0.944000, 0.819325, -7.816141, 48.963097, -0.143874, -0.078234, 3.100281

1497961194.909848, 0.018937, -0.017104, 0.002749, 0.064000, -0.144000, 0.944000, 0.821581, -7.763814, 48.971384, -0.143772, -0.078220, 3.098860

1497961194.923273, 0.020464, -0.016799, 0.001222, 0.064000, -0.160000, 0.960000, 0.823387, -7.721905, 48.977980, -0.143960, -0.078232, 3.103308

1497961194.936729, 0.015882, -0.016799, -0.000916, 0.064000, -0.144000, 0.944000, 0.824833, -7.688347, 48.983234, -0.143895, -0.078224, 3.102382

1497961194.950141, 0.025351, -0.018937, -0.000916, 0.064000, -0.144000, 0.944000, 0.788509, -7.712625, 48.980016, -0.143707, -0.078241, 3.101311

1497961194.963575, 0.022907, -0.015882, 0.000305, 0.064000, -0.160000, 0.944000, 0.759466, -7.732033, 48.977415, -0.143919, -0.078281, 3.106490

1497961194.977042, 0.025656, -0.015882, 0.000305, 0.048000, -0.160000, 0.944000, 0.773496, -7.768703, 48.971392, -0.144152, -0.078008, 3.113187

1497961194.990480, 0.021686, -0.014661, 0.001222, 0.048000, -0.160000, 0.944000, 0.784723, -7.798043, 48.966550, -0.144427, -0.077716, 3.119474

1497961195.003992, 0.020464, -0.014355, 0.001833, 0.064000, -0.144000, 0.960000, 0.793706, -7.821518, 48.962661, -0.144230, -0.077656, 3.116192

1497961195.017445, 0.020769, -0.013744, 0.004581, 0.064000, -0.144000, 0.960000, 0.820407, -7.849932, 48.957673, -0.144035, -0.077582, 3.112742

1497961195.030924, 0.024435, -0.012217, 0.003360, 0.080000, -0.160000, 0.992000, 0.841819, -7.872713, 48.953652, -0.144034, -0.077778, 3.113533

1497961195.044414, 0.025351, -0.013744, 0.003054, 0.064000, -0.176000, 0.928000, 0.839036, -7.878029, 48.952844, -0.144606, -0.077981, 3.124217

1497961195.057858, 0.022297, -0.015882, 0.001527, 0.064000, -0.176000, 0.928000, 0.836814, -7.882276, 48.952199, -0.145209, -0.078202, 3.134638

1497961195.071361, 0.025962, -0.017715, 0.003360, 0.064000, -0.144000, 0.992000, 0.835037, -7.885669, 48.951682, -0.144805, -0.078143, 3.128444

1497961195.084802, 0.023824, -0.016799, 0.001222, 0.080000, -0.144000, 0.928000, 0.759659, -7.870524, 48.955347, -0.144682, -0.078490, 3.127189

1497961195.098338, 0.024435, -0.013134, 0.001833, 0.080000, -0.144000, 0.928000, 0.699391, -7.858402, 48.958193, -0.144551, -0.078784, 3.126057

1497961195.111772, 0.019242, -0.011301, 0.004887, 0.064000, -0.160000, 0.960000, 0.743758, -7.812406, 48.964900, -0.144735, -0.078691, 3.129177

1497961195.125353, 0.024129, -0.012828, 0.006109, 0.064000, -0.160000, 0.960000, 0.779243, -7.775609, 48.970205, -0.144851, -0.078621, 3.132587

1497961195.138780, 0.024129, -0.017715, 0.003971, 0.064000, -0.176000, 0.960000, 0.807625, -7.746170, 48.974410, -0.145319, -0.078756, -3.141094

1497961195.152337, 0.020769, -0.013744, 0.003665, 0.080000, -0.160000, 0.944000, 0.719633, -7.744122, 48.976106, -0.145493, -0.079057, -3.137839

1497961195.165777, 0.018326, -0.014050, 0.002749, 0.080000, -0.160000, 0.944000, 0.649198, -7.742466, 48.977352, -0.145697, -0.079354, -3.134714

1497961195.179300, 0.022907, -0.019242, 0.002749, 0.064000, -0.160000, 0.960000, 0.666776, -7.777108, 48.971627, -0.145807, -0.079355, -3.131862

1497961195.192765, 0.019242, -0.018937, 0.000916, 0.064000, -0.160000, 0.960000, 0.680840, -7.804821, 48.967024, -0.145961, -0.079351, -3.129290

1497961195.206273, 0.024740, -0.015577, 0.005803, 0.064000, -0.160000, 0.960000, 0.692093, -7.826993, 48.963328, -0.146041, -0.079292, -3.126873

1497961195.219742, 0.023824, -0.010996, 0.004276, 0.064000, -0.160000, 0.944000, 0.681747, -7.835105, 48.962175, -0.146189, -0.079211, -3.123641

1497961195.233217, 0.022297, -0.016799, 0.000916, 0.064000, -0.144000, 0.928000, 0.673487, -7.841581, 48.961253, -0.146041, -0.079198, -3.125738

1497961195.246683, 0.018021, -0.016799, 0.003360, 0.064000, -0.144000, 0.928000, 0.704417, -7.835095, 48.961856, -0.145956, -0.079179, -3.127733

1497961195.260182, 0.021991, -0.014355, 0.001833, 0.064000, -0.176000, 0.976000, 0.729164, -7.829902, 48.962325, -0.146365, -0.079189, -3.120358

1497961195.273625, 0.023824, -0.016188, 0.004276, 0.064000, -0.176000, 0.976000, 0.748966, -7.825746, 48.962690, -0.146746, -0.079215, -3.113010

1497961195.287140, 0.020159, -0.014355, 0.000611, 0.064000, -0.160000, 0.976000, 0.727991, -7.768423, 48.972134, -0.146807, -0.079122, -3.111479

1497961195.300568, 0.017104, -0.009163, 0.000611, 0.048000, -0.128000, 0.960000, 0.711204, -7.722536, 48.979638, -0.146125, -0.078752, -3.123984

1497961195.314063, 0.015882, -0.012217, -0.000000, 0.048000, -0.128000, 0.960000, 0.753128, -7.721773, 48.979131, -0.145472, -0.078427, -3.136462

1497961195.327510, 0.018326, -0.016493, -0.000000, 0.064000, -0.144000, 0.960000, 0.786669, -7.721158, 48.978701, -0.145282, -0.078385, -3.139501

1497961195.340996, 0.018937, -0.010996, 0.003360, 0.080000, -0.160000, 0.960000, 0.813502, -7.720663, 48.978340, -0.145429, -0.078621, -3.136811

1497961195.356328, 0.020769, -0.012828, 0.004581, 0.080000, -0.160000, 0.960000, 0.780215, -7.708695, 48.980767, -0.145515, -0.078895, -3.134096

1497961195.369769, 0.021075, -0.011912, 0.000611, 0.064000, -0.144000, 0.976000, 0.753541, -7.699102, 48.982694, -0.145231, -0.078765, -3.137973

1497961195.383180, 0.022602, -0.018326, 0.003665, 0.064000, -0.176000, 0.992000, 0.675855, -7.775533, 48.971753, -0.145595, -0.078797, -3.130970

1497961195.396731, 0.020769, -0.013744, 0.001222, 0.064000, -0.176000, 0.992000, 0.613762, -7.836593, 48.962837, -0.145966, -0.078762, -3.124742

1497961195.410153, 0.021380, -0.014661, 0.002138, 0.080000, -0.144000, 0.976000, 0.564124, -7.885387, 48.955599, -0.145703, -0.078990, -3.128782

1497961195.423628, 0.021686, -0.012523, -0.000000, 0.080000, -0.144000, 0.976000, 0.524437, -7.924388, 48.949743, -0.145438, -0.079189, -3.132950

1497961195.437077, 0.016799, -0.013744, -0.000611, 0.064000, -0.160000, 0.960000, 0.492701, -7.955565, 48.945015, -0.145621, -0.079112, -3.131661

1497961195.450524, 0.021380, -0.014966, 0.003665, 0.064000, -0.144000, 0.960000, 0.560038, -7.929560, 48.948511, -0.145381, -0.079028, -3.136018

1497961195.463954, 0.020159, -0.015577, 0.000916, 0.064000, -0.144000, 0.960000, 0.613944, -7.908728, 48.951234, -0.145161, -0.078958, -3.140254

1497961195.477410, 0.021991, -0.014050, 0.004276, 0.064000, -0.160000, 0.960000, 0.657093, -7.892046, 48.953367, -0.145290, -0.078887, -3.138175

1497961195.490845, 0.021075, -0.015577, 0.003971, 0.064000, -0.160000, 0.992000, 0.653894, -7.962405, 48.942015, -0.145307, -0.078773, -3.138701

1497961195.504285, 0.024740, -0.014966, 0.003971, 0.064000, -0.160000, 0.992000, 0.651338, -8.018587, 48.932875, -0.145272, -0.078649, -3.139672

1497961195.517725, 0.020159, -0.016799, 0.002443, 0.048000, -0.160000, 0.960000, 0.686777, -7.940722, 48.945087, -0.145443, -0.078300, -3.137215

1497961195.531152, 0.021075, -0.015272, 0.001527, 0.048000, -0.160000, 0.960000, 0.715139, -7.878386, 48.954753, -0.145608, -0.077947, -3.134067

1497961195.544686, 0.017715, -0.018021, 0.004276, 0.080000, -0.160000, 0.976000, 0.737835, -7.828490, 48.962420, -0.145717, -0.078239, -3.132930

1497961195.558103, 0.017410, -0.017104, 0.006109, 0.064000, -0.160000, 0.960000, 0.700558, -7.918087, 48.948558, -0.145896, -0.078215, -3.131139

1497961195.571535, 0.021075, -0.011912, 0.002443, 0.064000, -0.160000, 0.960000, 0.670727, -7.989760, 48.937329, -0.146014, -0.078125, -3.130022

1497961195.585054, 0.017715, -0.014966, 0.002138, 0.048000, -0.176000, 0.976000, 0.665033, -7.932445, 48.946729, -0.146557, -0.077878, -3.120780

1497961195.598512, 0.025962, -0.012523, 0.004276, 0.064000, -0.160000, 0.976000, 0.660481, -7.886618, 48.954196, -0.146544, -0.077773, -3.120039

1497961195.612006, 0.022907, -0.019242, 0.003971, 0.064000, -0.160000, 0.976000, 0.656841, -7.849971, 48.960135, -0.146573, -0.077761, -3.119014

1497961195.625502, 0.017715, -0.015577, 0.001527, 0.080000, -0.144000, 0.992000, 0.672036, -7.853420, 48.959375, -0.146298, -0.078005, -3.123852

1497961195.638961, 0.027184, -0.018937, 0.003665, 0.080000, -0.144000, 0.928000, 0.684175, -7.856175, 48.958765, -0.146105, -0.078377, -3.125572

1497961195.652466, 0.023518, -0.013744, 0.001527, 0.064000, -0.144000, 0.912000, 0.712641, -7.843567, 48.960381, -0.146002, -0.078365, -3.126666

1497961195.665895, 0.021991, -0.014355, 0.003971, 0.064000, -0.144000, 0.976000, 0.735414, -7.833478, 48.961659, -0.145694, -0.078272, -3.131667

1497961195.679417, 0.014355, -0.014661, -0.000916, 0.064000, -0.144000, 0.976000, 0.753631, -7.825406, 48.962673, -0.145488, -0.078195, -3.136602

1497961195.692855, 0.019853, -0.014661, 0.000305, 0.064000, -0.144000, 0.944000, 0.750118, -7.804197, 48.966112, -0.145331, -0.078153, -3.139235

1497961195.706373, 0.023213, -0.013744, 0.004276, 0.048000, -0.160000, 0.944000, 0.747305, -7.787214, 48.968858, -0.145557, -0.077830, -3.133522

1497961195.719817, 0.021686, -0.016493, 0.005803, 0.048000, -0.160000, 0.944000, 0.745183, -7.848879, 48.959045, -0.145791, -0.077535, -3.128575

1497961195.733327, 0.015882, -0.014966, 0.003054, 0.080000, -0.144000, 0.960000, 0.743484, -7.898243, 48.951131, -0.145656, -0.077813, -3.132035

1497961195.746784, 0.019242, -0.012828, 0.002749, 0.064000, -0.176000, 0.928000, 0.742123, -7.937756, 48.944760, -0.146275, -0.077964, -3.122789

1497961195.760304, 0.020464, -0.014661, 0.002749, 0.064000, -0.176000, 0.928000, 0.814666, -7.947917, 48.941957, -0.146866, -0.078134, -3.113560

1497961195.773816, 0.021380, -0.016493, 0.000305, 0.064000, -0.160000, 0.944000, 0.872686, -7.956032, 48.939639, -0.147018, -0.078144, -3.111356

1497961195.787450, 0.016799, -0.013744, 0.001222, 0.064000, -0.160000, 0.944000, 0.827428, -7.969312, 48.938264, -0.147226, -0.078116, -3.109343

1497961195.801027, 0.015882, -0.014661, 0.003054, 0.048000, -0.144000, 0.944000, 0.791171, -7.979946, 48.937131, -0.147013, -0.077736, -3.115747

1497961195.814636, 0.023824, -0.017715, 0.001833, 0.048000, -0.160000, 0.944000, 0.762133, -7.988460, 48.936203, -0.147158, -0.077445, -3.112729

1497961195.828207, 0.020159, -0.017104, -0.000916, 0.048000, -0.160000, 0.944000, 0.756015, -8.036133, 48.928491, -0.147338, -0.077149, -3.110366

1497961195.841791, 0.021991, -0.011606, 0.002138, 0.080000, -0.128000, 0.976000, 0.751132, -8.074167, 48.922305, -0.146735, -0.077456, -3.120265

1497961195.855518, 0.025962, -0.012828, 0.002443, 0.064000, -0.160000, 0.960000, 0.711397, -8.042633, 48.928092, -0.146761, -0.077390, -3.119763

1497961195.869086, 0.025351, -0.014050, 0.001527, 0.064000, -0.160000, 0.960000, 0.679576, -8.017375, 48.932690, -0.146799, -0.077343, -3.119093

1497961195.882717, 0.022297, -0.016188, 0.000305, 0.064000, -0.144000, 0.976000, 0.709465, -8.033045, 48.929696, -0.146456, -0.077308, -3.125738

1497961195.896326, 0.018326, -0.014661, 0.000916, 0.080000, -0.144000, 0.944000, 0.733386, -8.045584, 48.927283, -0.146324, -0.077615, -3.129359

1497961195.909958, 0.020159, -0.015272, -0.000000, 0.080000, -0.144000, 0.944000, 0.752529, -8.055616, 48.925341, -0.146168, -0.077926, -3.132996

1497961195.923537, 0.021075, -0.017104, 0.002749, 0.096000, -0.128000, 0.960000, 0.731001, -8.009686, 48.933208, -0.145694, -0.078605, -3.139890

1497961195.937206, 0.021380, -0.014661, 0.004887, 0.096000, -0.128000, 0.960000, 0.713769, -7.972915, 48.939467, -0.145220, -0.079232, 3.136747

1497961195.950829, 0.019548, -0.013744, 0.003971, 0.064000, -0.144000, 0.944000, 0.773887, -7.979371, 48.937501, -0.145065, -0.079149, 3.132976

1497961195.964399, 0.019242, -0.014355, 0.002749, 0.064000, -0.144000, 0.960000, 0.821985, -7.984529, 48.935875, -0.144857, -0.079057, 3.128106

1497961195.978038, 0.016188, -0.014050, -0.000305, 0.064000, -0.144000, 0.960000, 0.860466, -7.988649, 48.934541, -0.144690, -0.078970, 3.123181

1497961195.991640, 0.020464, -0.013134, 0.001833, 0.080000, -0.160000, 0.960000, 0.836149, -7.977343, 48.936807, -0.144828, -0.079216, 3.124689

1497961196.005294, 0.019548, -0.014050, 0.001222, 0.064000, -0.160000, 0.960000, 0.816678, -7.968288, 48.938611, -0.144989, -0.079147, 3.126593

1497961196.018866, 0.019853, -0.016188, 0.005192, 0.064000, -0.160000, 0.960000, 0.782244, -7.957812, 48.940878, -0.145149, -0.079100, 3.128581

1497961196.032469, 0.021686, -0.013134, 0.003360, 0.064000, -0.160000, 0.992000, 0.754701, -7.949429, 48.942673, -0.145159, -0.078955, 3.128457

1497961196.046183, 0.019548, -0.007941, 0.002443, 0.064000, -0.144000, 0.976000, 0.732668, -7.942721, 48.944097, -0.144889, -0.078770, 3.123157

1497961196.059774, 0.013439, -0.014355, 0.003360, 0.064000, -0.144000, 0.976000, 0.733041, -7.894714, 48.951858, -0.144713, -0.078670, 3.118351

1497961196.073482, 0.017410, -0.015577, 0.002749, 0.064000, -0.160000, 0.960000, 0.733339, -7.856354, 48.958025, -0.144911, -0.078641, 3.121249

1497961196.087063, 0.021991, -0.013439, 0.003360, 0.064000, -0.160000, 0.960000, 0.771123, -7.850080, 48.958451, -0.145047, -0.078581, 3.124177

1497961196.100770, 0.020159, -0.015272, -0.000000, 0.080000, -0.160000, 0.976000, 0.801365, -7.845055, 48.958770, -0.145126, -0.078839, 3.125670

1497961196.114421, 0.017715, -0.014966, 0.003971, 0.064000, -0.128000, 0.960000, 0.825568, -7.841032, 48.959013, -0.144587, -0.078834, 3.116278

1497961196.128038, 0.016493, -0.014050, -0.000000, 0.064000, -0.128000, 0.960000, 0.789010, -7.741286, 48.975486, -0.144077, -0.078816, 3.107793

1497961196.141623, 0.017104, -0.018021, -0.000916, 0.064000, -0.160000, 0.992000, 0.759781, -7.661516, 48.988490, -0.144188, -0.078772, 3.110467

1497961196.155317, 0.019548, -0.013439, -0.001527, 0.112000, -0.176000, 0.928000, 0.772702, -7.738840, 48.976132, -0.144658, -0.079869, 3.116903

1497961196.168941, 0.017410, -0.009468, 0.002443, 0.112000, -0.176000, 0.928000, 0.783017, -7.800559, 48.966176, -0.145163, -0.080875, 3.123040

1497961196.182533, 0.017715, -0.017104, 0.002749, 0.064000, -0.160000, 0.944000, 0.791255, -7.849846, 48.958167, -0.145413, -0.080856, 3.126961

1497961196.196223, 0.022907, -0.017410, 0.005192, 0.080000, -0.144000, 0.944000, 0.761383, -7.856578, 48.957561, -0.145236, -0.081126, 3.125095

1497961196.209822, 0.022602, -0.013439, 0.002443, 0.080000, -0.144000, 0.944000, 0.737488, -7.861960, 48.957062, -0.145064, -0.081341, 3.123205

1497961196.223469, 0.024435, -0.014966, 0.001222, 0.064000, -0.160000, 0.944000, 0.755953, -7.836627, 48.960842, -0.145225, -0.081290, 3.127154

1497961196.237051, 0.023213, -0.014355, 0.001222, 0.064000, -0.160000, 0.944000, 0.770748, -7.816326, 48.963857, -0.145401, -0.081232, 3.131199

1497961196.250658, 0.017715, -0.016188, 0.001833, 0.080000, -0.192000, 0.912000, 0.782600, -7.800061, 48.966262, -0.146346, -0.081909, -3.139382

1497961196.264240, 0.017104, -0.013744, 0.003971, 0.080000, -0.144000, 0.976000, 0.754500, -7.780734, 48.969778, -0.146125, -0.082062, 3.140493

1497961196.277839, 0.020464, -0.014661, 0.001527, 0.080000, -0.144000, 0.976000, 0.732035, -7.765279, 48.972572, -0.145862, -0.082228, 3.137333

1497961196.291498, 0.017104, -0.014355, 0.003054, 0.080000, -0.160000, 0.960000, 0.732532, -7.752878, 48.974530, -0.146024, -0.082432, 3.139900

1497961196.305149, 0.019242, -0.013439, 0.002138, 0.048000, -0.160000, 0.944000, 0.732930, -7.742960, 48.976093, -0.146304, -0.082030, -3.137092

1497961196.318777, 0.016799, -0.017715, 0.002749, 0.048000, -0.160000, 0.944000, 0.733249, -7.735029, 48.977341, -0.146611, -0.081690, -3.130922

1497961196.332361, 0.023518, -0.016799, 0.003054, 0.064000, -0.144000, 0.944000, 0.733804, -7.731856, 48.977834, -0.146383, -0.081605, -3.133051

1497961196.345992, 0.018937, -0.011912, 0.001833, 0.048000, -0.144000, 0.960000, 0.734249, -7.729316, 48.978228, -0.146112, -0.081111, -3.137521

1497961196.359577, 0.025656, -0.012828, 0.004581, 0.048000, -0.144000, 0.960000, 0.697708, -7.709335, 48.981911, -0.145768, -0.080633, -3.141552

1497961196.373238, 0.023824, -0.014050, 0.005498, 0.080000, -0.160000, 0.960000, 0.668461, -7.693338, 48.984834, -0.145843, -0.080862, -3.138735

1497961196.386863, 0.021380, -0.013439, 0.001222, 0.080000, -0.160000, 0.960000, 0.645054, -7.680534, 48.987157, -0.145945, -0.081086, -3.135976

1497961196.400433, 0.021380, -0.012828, 0.004887, 0.064000, -0.144000, 0.976000, 0.626545, -7.691490, 48.985678, -0.145649, -0.080919, -3.139517

1497961196.414104, 0.015577, -0.014050, 0.002749, 0.080000, -0.160000, 0.976000, 0.611724, -7.700262, 48.984488, -0.145783, -0.081111, -3.137578

1497961196.427693, 0.020464, -0.010996, 0.004887, 0.080000, -0.160000, 0.976000, 0.729009, -7.721900, 48.979476, -0.145851, -0.081253, -3.135722

1497961196.441332, 0.021991, -0.018631, 0.001222, 0.064000, -0.160000, 0.976000, 0.822801, -7.739172, 48.975264, -0.145913, -0.081184, -3.133394

1497961196.454918, 0.022907, -0.015882, 0.003054, 0.064000, -0.160000, 0.960000, 0.897810, -7.752964, 48.971765, -0.146023, -0.081108, -3.130092

1497961196.468513, 0.019548, -0.009468, 0.003054, 0.064000, -0.160000, 0.960000, 0.845483, -7.769574, 48.970064, -0.146172, -0.080947, -3.127076

1497961196.482088, 0.019242, -0.016799, 0.001222, 0.064000, -0.128000, 0.960000, 0.803754, -7.782814, 48.968664, -0.145580, -0.080935, -3.136659

1497961196.495680, 0.014966, -0.014355, 0.002138, 0.064000, -0.160000, 0.944000, 0.826775, -7.766837, 48.970817, -0.145859, -0.080882, -3.132520

1497961196.509366, 0.019242, -0.017104, 0.002749, 0.064000, -0.160000, 0.944000, 0.845199, -7.754050, 48.972529, -0.146076, -0.080866, -3.128321

1497961196.522924, 0.017715, -0.013744, 0.001833, 0.080000, -0.144000, 0.976000, 0.859942, -7.743816, 48.973892, -0.145852, -0.081043, -3.131762

1497961196.536594, 0.022602, -0.014966, 0.002138, 0.080000, -0.144000, 0.976000, 0.854304, -7.763214, 48.970919, -0.145566, -0.081233, -3.135242

1497961196.550177, 0.018021, -0.014966, 0.002749, 0.064000, -0.144000, 0.944000, 0.849784, -7.778767, 48.968530, -0.145429, -0.081132, -3.137768

1497961196.563806, 0.019242, -0.015882, 0.001222, 0.080000, -0.160000, 0.976000, 0.826797, -7.856985, 48.956434, -0.145517, -0.081339, -3.136750

1497961196.577385, 0.025962, -0.016188, 0.000611, 0.080000, -0.160000, 0.976000, 0.808413, -7.919517, 48.946665, -0.145515, -0.081543, -3.136161

1497961196.591019, 0.025962, -0.015577, 0.005192, 0.064000, -0.144000, 0.960000, 0.792829, -7.923761, 48.946233, -0.145207, -0.081418, -3.140749

1497961196.604662, 0.021686, -0.014050, 0.004887, 0.064000, -0.160000, 0.960000, 0.798816, -7.927101, 48.945595, -0.145337, -0.081297, -3.138824

1497961196.618252, 0.021686, -0.012828, 0.001833, 0.064000, -0.160000, 0.960000, 0.803597, -7.929767, 48.945084, -0.145462, -0.081168, -3.136998

1497961196.631910, 0.016188, -0.010690, 0.002138, 0.048000, -0.144000, 0.960000, 0.808882, -7.890966, 48.951268, -0.145216, -0.080664, 3.139754

1497961196.645502, 0.018631, -0.013134, 0.001527, 0.064000, -0.160000, 0.976000, 0.813119, -7.859856, 48.956202, -0.145328, -0.080525, 3.141207

1497961196.659134, 0.024129, -0.010996, -0.001527, 0.064000, -0.160000, 0.976000, 0.834096, -7.900428, 48.949319, -0.145358, -0.080364, -3.140934

1497961196.672699, 0.022602, -0.012828, 0.002749, 0.064000, -0.128000, 0.928000, 0.850867, -7.932861, 48.943784, -0.144846, -0.080322, 3.133624

1497961196.686311, 0.024129, -0.015882, 0.007636, 0.064000, -0.128000, 0.928000, 0.864278, -7.958793, 48.939339, -0.144328, -0.080311, 3.125028

1497961196.699869, 0.025045, -0.015577, 0.005192, 0.080000, -0.160000, 0.960000, 0.801135, -7.904598, 48.949196, -0.144418, -0.080559, 3.126987

1497961196.713492, 0.021991, -0.017715, 0.003665, 0.048000, -0.160000, 0.960000, 0.750647, -7.861251, 48.956976, -0.144603, -0.080200, 3.130815

1497961196.727205, 0.021380, -0.016188, 0.004581, 0.048000, -0.160000, 0.960000, 0.784420, -7.904740, 48.949444, -0.144783, -0.079822, 3.134125

1497961196.740784, 0.021075, -0.012523, 0.002138, 0.064000, -0.144000, 0.960000, 0.811455, -7.939546, 48.943370, -0.144556, -0.079695, 3.129591

1497961196.754444, 0.024740, -0.014050, 0.005192, 0.080000, -0.192000, 0.960000, 0.833094, -7.967401, 48.938479, -0.145258, -0.080177, 3.140083

1497961196.768026, 0.022297, -0.014661, 0.002443, 0.080000, -0.192000, 0.960000, 0.886937, -7.986315, 48.934450, -0.145981, -0.080654, -3.132803

1497961196.781666, 0.021075, -0.016493, 0.003054, 0.080000, -0.144000, 0.976000, 0.929992, -8.001433, 48.931181, -0.145716, -0.080870, -3.137828

1497961196.795266, 0.016493, -0.013439, -0.000000, 0.080000, -0.144000, 0.992000, 0.926862, -7.989130, 48.933250, -0.145463, -0.081026, 3.139656

1497961196.808913, 0.020464, -0.013439, 0.000305, 0.080000, -0.144000, 0.992000, 0.924362, -7.979303, 48.934901, -0.145161, -0.081179, 3.134139

1497961196.822521, 0.018326, -0.016188, 0.004581, 0.048000, -0.160000, 0.960000, 0.922365, -7.971451, 48.936218, -0.145364, -0.080772, 3.136772

1497961196.836088, 0.021075, -0.015577, 0.003665, 0.048000, -0.160000, 0.960000, 0.902807, -7.950553, 48.939983, -0.145528, -0.080367, 3.139580

1497961196.849754, 0.018326, -0.017410, 0.001527, 0.064000, -0.176000, 0.960000, 0.887161, -7.933833, 48.942982, -0.146055, -0.080446, -3.135323

1497961196.863359, 0.021380, -0.016799, 0.003360, 0.048000, -0.144000, 0.976000, 0.801020, -7.938588, 48.943697, -0.145651, -0.080031, 3.139497

1497961196.877035, 0.022297, -0.016188, 0.004276, 0.048000, -0.144000, 0.976000, 0.732109, -7.942374, 48.944162, -0.145252, -0.079612, 3.131579

1497961196.890607, 0.023213, -0.017104, 0.002443, 0.064000, -0.160000, 0.976000, 0.676981, -7.945393, 48.944465, -0.145299, -0.079540, 3.132459

1497961196.904220, 0.019242, -0.013744, -0.000000, 0.064000, -0.160000, 0.928000, 0.670139, -7.861241, 48.958146, -0.145577, -0.079543, 3.136854

1497961196.917789, 0.021075, -0.014966, 0.001222, 0.064000, -0.160000, 0.928000, 0.664658, -7.793821, 48.968999, -0.145829, -0.079564, -3.141532

1497961196.931346, 0.020159, -0.012828, 0.002138, 0.064000, -0.160000, 0.976000, 0.678892, -7.778932, 48.971171, -0.145913, -0.079446, -3.139535

1497961196.945047, 0.021686, -0.016188, 0.000611, 0.048000, -0.160000, 0.928000, 0.690293, -7.767004, 48.972905, -0.146215, -0.079180, -3.132551

1497961196.958610, 0.016188, -0.014661, 0.001833, 0.048000, -0.160000, 0.928000, 0.699424, -7.757450, 48.974290, -0.146587, -0.078893, -3.125569

1497961196.972250, 0.018021, -0.017104, 0.000611, 0.048000, -0.160000, 0.960000, 0.687916, -7.782674, 48.970450, -0.146777, -0.078564, -3.121640

1497961196.985843, 0.021686, -0.015577, 0.003971, 0.048000, -0.160000, 0.960000, 0.678712, -7.802847, 48.967369, -0.146913, -0.078209, -3.117993

1497961196.999453, 0.025962, -0.015882, 0.001527, 0.064000, -0.160000, 0.944000, 0.689309, -7.776572, 48.971400, -0.147009, -0.078223, -3.114518

1497961197.013021, 0.023518, -0.014966, 0.003054, 0.080000, -0.144000, 0.976000, 0.697773, -7.755581, 48.974609, -0.146696, -0.078468, -3.118129

1497961197.026687, 0.022907, -0.013744, 0.003665, 0.080000, -0.144000, 0.976000, 0.704537, -7.738807, 48.977166, -0.146395, -0.078691, -3.121567

1497961197.040329, 0.017715, -0.018021, 0.002749, 0.016000, -0.160000, 0.976000, 0.710068, -7.800415, 48.967311, -0.147168, -0.077996, -3.098223

1497961197.053907, 0.023213, -0.016493, 0.004276, 0.064000, -0.144000, 0.976000, 0.714491, -7.849672, 48.959375, -0.146815, -0.077943, -3.103869

1497961197.067587, 0.017410, -0.014050, -0.000916, 0.064000, -0.144000, 0.976000, 0.755880, -7.844755, 48.959542, -0.146539, -0.077870, -3.109516

1497961197.081187, 0.022297, -0.012828, 0.002749, 0.064000, -0.160000, 0.960000, 0.789064, -7.840808, 48.959650, -0.146630, -0.077807, -3.107554

1497961197.094831, 0.021075, -0.016188, 0.001222, 0.048000, -0.144000, 0.976000, 0.815659, -7.837643, 48.959721, -0.146234, -0.077442, -3.115475

1497961197.108406, 0.021991, -0.014966, -0.000611, 0.048000, -0.144000, 0.976000, 0.780881, -7.846824, 48.958818, -0.145837, -0.077069, -3.123221

1497961197.122011, 0.020769, -0.017715, 0.001833, 0.064000, -0.144000, 0.944000, 0.753069, -7.854163, 48.958077, -0.145658, -0.077087, -3.126484

1497961197.135611, 0.023518, -0.013744, 0.003971, 0.064000, -0.144000, 0.944000, 0.749052, -7.820792, 48.963480, -0.145450, -0.077049, -3.129400

1497961197.149186, 0.020159, -0.014355, 0.001833, 0.064000, -0.176000, 0.976000, 0.745841, -7.794114, 48.967783, -0.145886, -0.077109, -3.121692

1497961197.162879, 0.021075, -0.014050, 0.001527, 0.080000, -0.160000, 0.944000, 0.743274, -7.772783, 48.971212, -0.146038, -0.077446, -3.118998

1497961197.176441, 0.021686, -0.010385, 0.002443, 0.080000, -0.160000, 0.944000, 0.759867, -7.794833, 48.967453, -0.146184, -0.077723, -3.116468

1497961197.190081, 0.020464, -0.014050, 0.002138, 0.080000, -0.160000, 0.992000, 0.773143, -7.812473, 48.964434, -0.146189, -0.077940, -3.116385

1497961197.203672, 0.016799, -0.016493, 0.002138, 0.064000, -0.160000, 0.976000, 0.728430, -7.844699, 48.959967, -0.146302, -0.077894, -3.115381

1497961197.217312, 0.020464, -0.017715, 0.004581, 0.064000, -0.160000, 0.976000, 0.692660, -7.870471, 48.956350, -0.146364, -0.077859, -3.114589

1497961197.230870, 0.022602, -0.016799, 0.003054, 0.064000, -0.176000, 0.960000, 0.664043, -7.891085, 48.953428, -0.146807, -0.077955, -3.107217

1497961197.244550, 0.017715, -0.016493, 0.001527, 0.080000, -0.160000, 0.960000, 0.695545, -7.915704, 48.949015, -0.146939, -0.078259, -3.106436

1497961197.258151, 0.022602, -0.014050, 0.003665, 0.080000, -0.160000, 0.960000, 0.720686, -7.935350, 48.945471, -0.147006, -0.078517, -3.105754

1497961197.271730, 0.025656, -0.017715, 0.003054, 0.064000, -0.112000, 0.944000, 0.723319, -7.942890, 48.944209, -0.146034, -0.078729, -3.120067

1497961197.285464, 0.022907, -0.015577, 0.004581, 0.064000, -0.112000, 0.944000, 0.725427, -7.948926, 48.943198, -0.145115, -0.078898, -3.134112

1497961197.299016, 0.021991, -0.014661, 0.001527, 0.064000, -0.176000, 0.960000, 0.727114, -7.953759, 48.942387, -0.145592, -0.078955, -3.126630

1497961197.312625, 0.023518, -0.015882, 0.002749, 0.064000, -0.144000, 0.960000, 0.672947, -8.083306, 48.921933, -0.145311, -0.078888, -3.132407

1497961197.326236, 0.021991, -0.014050, 0.000916, 0.064000, -0.144000, 0.960000, 0.629623, -8.186864, 48.905287, -0.145051, -0.078801, -3.138741

1497961197.339843, 0.018021, -0.013134, 0.001833, 0.080000, -0.144000, 0.976000, 0.595335, -8.090518, 48.921747, -0.144848, -0.079008, 3.139484

1497961197.353513, 0.017410, -0.010690, 0.001833, 0.064000, -0.160000, 0.960000, 0.567878, -8.013346, 48.934774, -0.145031, -0.078891, 3.140619

1497961197.367115, 0.018021, -0.012828, 0.001527, 0.064000, -0.160000, 0.960000, 0.600888, -7.966147, 48.942085, -0.145206, -0.078807, -3.141082

1497961197.380789, 0.022297, -0.016493, 0.001833, 0.064000, -0.144000, 0.960000, 0.627287, -7.928391, 48.947884, -0.144957, -0.078755, 3.137818

1497961197.394438, 0.024740, -0.016188, 0.004887, 0.080000, -0.160000, 0.944000, 0.648401, -7.898189, 48.952492, -0.145087, -0.079078, 3.140237

1497961197.408097, 0.023824, -0.016493, 0.004581, 0.080000, -0.160000, 0.944000, 0.628948, -7.898516, 48.952693, -0.145227, -0.079399, -3.140595

1497961197.421680, 0.026267, -0.016493, 0.002443, 0.080000, -0.128000, 0.960000, 0.613366, -7.898778, 48.952848, -0.144642, -0.079716, 3.135165

1497961197.435324, 0.020464, -0.017410, 0.001222, 0.080000, -0.128000, 0.960000, 0.600254, -7.964371, 48.942382, -0.144142, -0.080042, 3.127571

1497961197.448910, 0.022907, -0.013439, 0.003665, 0.080000, -0.112000, 0.976000, 0.589775, -8.016776, 48.933953, -0.143268, -0.080407, 3.115780

1497961197.462496, 0.021075, -0.014661, 0.001222, 0.064000, -0.144000, 0.976000, 0.581399, -8.058656, 48.927173, -0.143011, -0.080278, 3.110216

1497961197.476116, 0.021686, -0.013134, -0.000000, 0.064000, -0.144000, 0.976000, 0.666980, -7.966435, 48.941182, -0.142754, -0.080134, 3.105222

1497961197.489705, 0.024129, -0.016188, -0.000611, 0.064000, -0.144000, 0.960000, 0.735450, -7.892610, 48.952161, -0.142532, -0.080052, 3.101733

1497961197.503435, 0.018021, -0.013744, 0.001222, 0.064000, -0.160000, 0.960000, 0.771326, -7.902147, 48.950070, -0.142765, -0.079977, 3.104606

1497961197.516992, 0.020769, -0.014966, 0.003054, 0.064000, -0.160000, 0.960000, 0.799996, -7.909764, 48.948380, -0.142961, -0.079912, 3.107407

1497961197.530633, 0.023518, -0.018326, 0.002138, 0.064000, -0.160000, 0.960000, 0.822911, -7.915850, 48.947016, -0.143114, -0.079895, 3.110115

1497961197.544208, 0.017715, -0.018326, 0.003971, 0.064000, -0.144000, 0.960000, 0.823291, -7.888145, 48.951482, -0.142975, -0.079838, 3.106480

1497961197.557809, 0.016493, -0.017410, 0.003971, 0.064000, -0.144000, 0.960000, 0.823595, -7.865970, 48.955045, -0.142855, -0.079770, 3.103091

1497961197.571375, 0.018021, -0.015882, 0.001833, 0.048000, -0.144000, 0.976000, 0.824223, -7.833482, 48.960244, -0.142592, -0.079345, 3.096640

1497961197.585025, 0.017715, -0.012217, 0.001527, 0.048000, -0.144000, 0.976000, 0.824726, -7.807460, 48.964392, -0.142344, -0.078882, 3.090597

1497961197.598671, 0.024740, -0.011301, 0.000916, 0.080000, -0.176000, 0.976000, 0.825128, -7.786623, 48.967703, -0.142724, -0.079191, 3.097927

1497961197.612304, 0.021380, -0.014661, 0.001527, 0.064000, -0.160000, 0.976000, 0.807219, -7.827114, 48.961546, -0.142855, -0.079116, 3.100491

1497961197.625994, 0.025962, -0.012828, 0.002749, 0.064000, -0.160000, 0.976000, 0.792877, -7.859535, 48.956586, -0.142920, -0.079013, 3.102737

1497961197.639601, 0.025351, -0.014966, 0.002138, 0.080000, -0.144000, 0.960000, 0.762330, -7.879080, 48.953930, -0.142709, -0.079263, 3.100397

1497961197.653242, 0.023213, -0.011301, 0.001222, 0.048000, -0.144000, 0.960000, 0.737912, -7.894700, 48.951787, -0.142446, -0.078799, 3.095081

1497961197.666833, 0.020159, -0.009163, 0.002138, 0.048000, -0.144000, 0.960000, 0.718391, -7.907187, 48.950062, -0.142232, -0.078314, 3.089812

1497961197.680426, 0.020159, -0.013134, 0.004276, 0.064000, -0.144000, 0.944000, 0.758052, -7.899088, 48.950771, -0.142140, -0.078241, 3.087622

1497961197.694013, 0.021686, -0.012217, 0.001833, 0.080000, -0.144000, 0.960000, 0.789769, -7.892608, 48.951315, -0.141994, -0.078471, 3.085468

1497961197.707566, 0.021991, -0.014355, 0.005498, 0.080000, -0.144000, 0.960000, 0.760325, -7.854869, 48.957851, -0.141851, -0.078718, 3.083663

1497961197.721247, 0.018631, -0.016188, 0.001527, 0.064000, -0.160000, 0.960000, 0.736751, -7.824650, 48.963051, -0.142094, -0.078713, 3.087493

1497961197.734819, 0.022297, -0.016188, 0.001222, 0.064000, -0.160000, 0.960000, 0.717881, -7.800456, 48.967191, -0.142287, -0.078708, 3.091413

1497961197.748458, 0.020464, -0.012828, 0.003665, 0.096000, -0.144000, 0.944000, 0.684067, -7.777946, 48.971256, -0.142205, -0.079298, 3.091069

1497961197.762029, 0.018631, -0.014355, 0.000916, 0.048000, -0.160000, 0.960000, 0.657025, -7.759940, 48.974482, -0.142497, -0.078950, 3.096505

1497961197.775678, 0.018326, -0.015577, 0.003360, 0.048000, -0.160000, 0.960000, 0.708652, -7.796109, 48.968018, -0.142782, -0.078615, 3.101588

1497961197.789249, 0.018021, -0.014050, -0.000305, 0.048000, -0.144000, 0.960000, 0.749899, -7.824997, 48.962795, -0.142599, -0.078204, 3.096955

1497961197.802828, 0.021686, -0.014966, 0.001527, 0.064000, -0.160000, 0.960000, 0.782861, -7.848078, 48.958585, -0.142785, -0.078186, 3.100374

1497961197.816436, 0.024435, -0.013134, 0.002443, 0.064000, -0.160000, 0.960000, 0.828214, -7.890842, 48.950965, -0.142929, -0.078138, 3.103427

1497961197.830012, 0.021991, -0.013134, 0.003360, 0.064000, -0.160000, 0.960000, 0.864521, -7.925069, 48.944807, -0.143103, -0.078085, 3.106176

1497961197.843695, 0.022297, -0.011301, 0.001222, 0.064000, -0.144000, 0.944000, 0.857128, -7.955814, 48.939949, -0.142954, -0.077996, 3.103030

1497961197.857242, 0.020159, -0.012523, 0.001222, 0.064000, -0.144000, 0.944000, 0.851206, -7.980438, 48.936043, -0.142840, -0.077924, 3.099765

1497961197.870845, 0.017715, -0.014050, 0.001833, 0.064000, -0.160000, 0.944000, 0.846464, -8.000154, 48.932906, -0.143125, -0.077922, 3.102997

1497961197.884426, 0.018326, -0.016188, 0.004276, 0.064000, -0.160000, 0.944000, 0.804250, -7.963799, 48.939548, -0.143402, -0.077945, 3.106452

1497961197.898036, 0.018021, -0.012217, 0.004887, 0.032000, -0.160000, 0.976000, 0.770573, -7.934791, 48.944801, -0.143613, -0.077213, 3.109354

1497961197.911603, 0.017104, -0.011301, 0.004581, 0.064000, -0.176000, 0.976000, 0.762672, -7.918045, 48.947637, -0.144129, -0.077232, 3.117136

1497961197.925230, 0.017715, -0.013439, 0.002749, 0.064000, -0.176000, 0.976000, 0.756354, -7.904652, 48.949900, -0.144624, -0.077280, 3.124823

1497961197.938815, 0.019548, -0.011606, 0.002749, 0.080000, -0.160000, 0.944000, 0.751300, -7.893941, 48.951706, -0.144825, -0.077580, 3.127555

1497961197.952385, 0.015577, -0.014050, 0.004581, 0.080000, -0.160000, 0.976000, 0.692118, -7.903410, 48.951050, -0.144976, -0.077827, 3.128646

1497961197.966084, 0.016188, -0.012828, 0.001527, 0.080000, -0.160000, 0.976000, 0.644785, -7.910976, 48.950475, -0.145111, -0.078061, 3.129618

1497961197.979632, 0.011606, -0.015882, 0.003971, 0.064000, -0.144000, 0.944000, 0.569536, -7.889532, 48.954869, -0.145073, -0.078030, 3.126928

1497961197.993258, 0.015577, -0.017104, 0.002138, 0.064000, -0.160000, 0.960000, 0.509471, -7.872401, 48.958288, -0.145286, -0.078029, 3.129343

1497961198.006862, 0.023213, -0.015882, 0.002749, 0.064000, -0.160000, 0.960000, 0.461506, -7.858712, 48.960963, -0.145393, -0.078009, 3.131780

1497961198.020452, 0.020769, -0.017715, 0.003054, 0.064000, -0.160000, 0.976000, 0.460613, -7.806860, 48.969266, -0.145476, -0.077984, 3.133640

1497961198.034028, 0.016799, -0.015882, 0.002443, 0.064000, -0.160000, 0.976000, 0.459897, -7.765286, 48.975883, -0.145611, -0.077939, 3.135756

1497961198.047662, 0.017410, -0.014050, 0.002443, 0.064000, -0.144000, 0.960000, 0.459645, -7.774150, 48.974479, -0.145432, -0.077873, 3.132935

1497961198.061281, 0.022907, -0.016188, 0.003971, 0.064000, -0.144000, 0.944000, 0.459443, -7.781259, 48.973352, -0.145240, -0.077854, 3.131050

1497961198.074931, 0.018021, -0.012523, 0.003054, 0.064000, -0.144000, 0.944000, 0.459281, -7.786957, 48.972448, -0.145116, -0.077790, 3.129144

1497961198.088631, 0.017104, -0.012217, 0.000916, 0.064000, -0.160000, 0.960000, 0.495334, -7.946651, 48.946436, -0.145301, -0.077725, 3.130938

1497961198.102192, 0.020464, -0.012523, 0.000611, 0.048000, -0.144000, 0.944000, 0.524141, -8.074200, 48.925258, -0.145074, -0.077324, 3.125217

1497961198.115842, 0.022602, -0.018021, 0.001222, 0.048000, -0.144000, 0.944000, 0.565820, -8.032826, 48.931603, -0.144829, -0.077004, 3.119907

1497961198.129426, 0.024740, -0.014966, 0.003360, 0.064000, -0.144000, 0.976000, 0.599168, -7.999714, 48.936631, -0.144506, -0.076947, 3.114669

1497961198.143010, 0.018021, -0.014050, 0.000305, 0.064000, -0.176000, 0.960000, 0.626323, -7.997676, 48.936624, -0.145040, -0.077041, 3.122258

1497961198.156611, 0.021686, -0.012828, 0.000305, 0.064000, -0.176000, 0.960000, 0.592818, -7.996152, 48.937290, -0.145513, -0.077112, 3.129623

1497961198.170268, 0.025045, -0.014966, 0.003054, 0.080000, -0.144000, 0.944000, 0.565983, -7.994930, 48.937808, -0.145309, -0.077426, 3.127023

1497961198.183886, 0.022602, -0.012523, 0.003360, 0.080000, -0.144000, 0.944000, 0.543794, -8.002087, 48.936890, -0.145141, -0.077699, 3.124453

1497961198.197451, 0.023213, -0.016188, 0.003665, 0.080000, -0.128000, 0.944000, 0.526070, -8.007803, 48.936148, -0.144653, -0.078059, 3.117697

1497961198.211135, 0.022907, -0.013439, 0.002138, 0.080000, -0.160000, 0.960000, 0.549304, -7.929146, 48.948699, -0.144756, -0.078331, 3.119512

1497961198.224705, 0.020769, -0.017715, 0.001833, 0.080000, -0.160000, 0.960000, 0.567908, -7.866141, 48.958652, -0.144889, -0.078655, 3.121664

1497961198.238351, 0.022297, -0.018937, 0.002443, 0.064000, -0.144000, 0.944000, 0.582803, -7.815688, 48.966556, -0.144713, -0.078659, 3.119641

1497961198.251919, 0.021380, -0.017104, -0.000000, 0.080000, -0.160000, 0.976000, 0.612798, -7.826002, 48.964543, -0.144785, -0.078940, 3.121282

1497961198.265509, 0.021686, -0.015577, 0.005192, 0.080000, -0.160000, 0.976000, 0.636781, -7.834245, 48.962918, -0.144857, -0.079184, 3.122914

1497961198.279150, 0.019242, -0.015882, 0.002138, 0.080000, -0.144000, 0.976000, 0.637808, -7.844081, 48.961330, -0.144639, -0.079421, 3.119747

1497961198.292794, 0.017410, -0.019548, 0.001833, 0.080000, -0.144000, 0.960000, 0.638629, -7.851953, 48.960058, -0.144499, -0.079727, 3.117342

1497961198.306396, 0.021075, -0.014966, 0.002138, 0.080000, -0.144000, 0.960000, 0.639287, -7.858253, 48.959038, -0.144314, -0.079965, 3.114944

1497961198.319973, 0.019853, -0.012828, 0.003971, 0.080000, -0.112000, 0.944000, 0.566268, -7.902611, 48.952797, -0.143560, -0.080331, 3.105057

1497961198.333658, 0.020159, -0.015272, 0.001527, 0.080000, -0.112000, 0.944000, 0.507807, -7.938107, 48.947695, -0.142811, -0.080722, 3.095330

1497961198.347224, 0.024435, -0.014050, 0.002443, 0.064000, -0.144000, 0.944000, 0.553366, -7.894425, 48.954265, -0.142647, -0.080618, 3.093284

1497961198.360865, 0.022602, -0.017410, 0.002138, 0.080000, -0.144000, 0.960000, 0.589843, -7.859440, 48.959468, -0.142476, -0.080870, 3.091406

1497961198.374444, 0.021991, -0.015882, 0.004581, 0.080000, -0.144000, 0.960000, 0.619045, -7.831426, 48.963597, -0.142320, -0.081092, 3.089731

1497961198.388037, 0.021075, -0.014966, 0.002749, 0.048000, -0.144000, 0.928000, 0.641517, -7.853373, 48.959792, -0.142253, -0.080674, 3.088173

1497961198.401632, 0.019242, -0.017410, 0.002443, 0.080000, -0.144000, 0.944000, 0.659457, -7.870891, 48.956741, -0.142186, -0.080952, 3.087029

1497961198.415349, 0.020159, -0.015882, 0.005498, 0.080000, -0.144000, 0.944000, 0.636669, -7.899680, 48.952405, -0.142108, -0.081199, 3.085797

1497961198.428985, 0.024435, -0.016799, 0.004887, 0.048000, -0.160000, 0.976000, 0.618479, -7.922658, 48.948925, -0.142234, -0.080781, 3.088142

1497961198.442562, 0.017715, -0.014966, -0.000916, 0.064000, -0.144000, 0.960000, 0.603951, -7.941006, 48.946133, -0.142107, -0.080671, 3.084842

1497961198.456248, 0.020159, -0.017715, 0.003360, 0.064000, -0.144000, 0.960000, 0.666163, -7.905042, 48.951147, -0.141956, -0.080593, 3.081836

1497961198.469831, 0.024435, -0.018937, 0.002749, 0.080000, -0.128000, 0.944000, 0.715927, -7.876261, 48.955084, -0.141502, -0.080920, 3.076241

1497961198.483482, 0.023518, -0.014966, 0.003665, 0.080000, -0.128000, 0.944000, 0.719256, -7.874443, 48.955327, -0.141067, -0.081185, 3.070767

1497961198.497068, 0.018937, -0.013439, 0.003054, 0.064000, -0.144000, 0.976000, 0.721920, -7.872988, 48.955522, -0.140899, -0.081019, 3.067192

1497961198.510672, 0.020159, -0.012828, 0.002443, 0.064000, -0.144000, 0.960000, 0.724053, -7.871823, 48.955678, -0.140775, -0.080870, 3.064676

1497961198.524262, 0.020769, -0.014050, 0.005498, 0.064000, -0.144000, 0.960000, 0.669513, -7.858176, 48.958647, -0.140651, -0.080735, 3.062440

1497961198.537867, 0.022602, -0.013744, 0.002749, 0.048000, -0.160000, 0.960000, 0.625994, -7.847280, 48.960970, -0.140920, -0.080346, 3.067463

1497961198.551525, 0.022602, -0.015882, 0.000611, 0.032000, -0.160000, 0.928000, 0.610526, -7.869216, 48.957645, -0.141458, -0.079815, 3.078679

1497961198.565193, 0.022297, -0.012828, 0.003360, 0.032000, -0.160000, 0.928000, 0.598137, -7.886783, 48.954971, -0.141977, -0.079235, 3.089346

1497961198.578830, 0.018021, -0.011912, 0.001833, 0.080000, -0.160000, 0.944000, 0.588217, -7.900849, 48.952823, -0.142251, -0.079513, 3.092633

1497961198.592413, 0.016188, -0.013439, -0.000305, 0.064000, -0.144000, 0.976000, 0.599484, -7.867962, 48.957983, -0.142094, -0.079388, 3.088842

1497961198.606068, 0.020769, -0.014050, 0.000305, 0.064000, -0.144000, 0.976000, 0.608525, -7.841568, 48.962106, -0.141880, -0.079274, 3.085314

1497961198.619642, 0.021686, -0.012523, 0.000305, 0.064000, -0.144000, 0.944000, 0.633400, -7.828730, 48.963844, -0.141775, -0.079185, 3.083833

1497961198.633237, 0.021991, -0.017410, 0.002443, 0.064000, -0.144000, 0.944000, 0.653293, -7.818461, 48.965224, -0.141670, -0.079158, 3.082477

1497961198.646838, 0.020159, -0.012828, 0.001527, 0.048000, -0.144000, 0.944000, 0.669204, -7.810247, 48.966320, -0.141563, -0.078734, 3.080045

1497961198.660435, 0.018326, -0.013134, 0.002749, 0.064000, -0.144000, 0.944000, 0.664102, -7.792126, 48.969276, -0.141514, -0.078660, 3.078948

1497961198.674105, 0.020464, -0.015577, 0.002749, 0.064000, -0.144000, 0.944000, 0.660015, -7.777608, 48.971639, -0.141436, -0.078622, 3.077991

1497961198.687682, 0.021686, -0.014966, 0.003360, 0.064000, -0.144000, 0.976000, 0.637399, -7.810413, 48.966718, -0.141232, -0.078528, 3.074904

1497961198.701298, 0.023518, -0.013134, 0.001222, 0.064000, -0.144000, 0.960000, 0.619335, -7.836612, 48.962763, -0.141060, -0.078437, 3.072638

1497961198.714916, 0.018631, -0.012828, 0.000305, 0.064000, -0.144000, 0.960000, 0.604903, -7.857541, 48.959590, -0.140955, -0.078345, 3.070269

1497961198.728562, 0.021686, -0.015577, 0.001527, 0.064000, -0.160000, 0.960000, 0.593681, -7.841595, 48.962283, -0.141175, -0.078340, 3.074102

1497961198.742125, 0.016493, -0.013439, -0.000611, 0.080000, -0.160000, 0.944000, 0.584702, -7.828835, 48.964433, -0.141481, -0.078670, 3.078067

1497961198.755715, 0.018937, -0.014355, 0.003360, 0.080000, -0.160000, 0.944000, 0.614356, -7.800602, 48.968576, -0.141752, -0.079000, 3.082187

1497961198.769262, 0.021991, -0.014355, 0.002443, 0.048000, -0.160000, 0.976000, 0.638082, -7.778009, 48.971866, -0.141938, -0.078616, 3.086223

1497961198.782825, 0.018326, -0.012828, 0.002138, 0.048000, -0.160000, 0.976000, 0.657065, -7.759928, 48.974484, -0.142170, -0.078223, 3.090405

1497961198.796547, 0.021686, -0.012217, 0.005498, 0.064000, -0.176000, 0.960000, 0.673000, -7.790942, 48.969343, -0.142716, -0.078309, 3.100053

1497961198.810100, 0.017715, -0.011301, 0.003360, 0.064000, -0.144000, 0.976000, 0.685775, -7.815801, 48.965204, -0.142536, -0.078174, 3.096395

1497961198.823757, 0.019242, -0.011912, 0.003054, 0.064000, -0.144000, 0.976000, 0.714258, -7.796467, 48.967879, -0.142338, -0.078051, 3.092906

1497961198.837332, 0.025351, -0.014050, 0.004581, 0.064000, -0.144000, 0.944000, 0.737062, -7.780984, 48.970004, -0.142181, -0.077999, 3.091596

1497961198.850933, 0.019548, -0.014355, 0.002443, 0.064000, -0.144000, 0.960000, 0.755317, -7.768588, 48.971694, -0.142045, -0.077933, 3.089351

1497961198.864521, 0.022602, -0.014966, 0.000305, 0.064000, -0.144000, 0.960000, 0.749880, -7.889860, 48.952386, -0.141864, -0.077877, 3.086188

1497961198.878198, 0.017410, -0.012828, -0.000000, 0.064000, -0.128000, 0.944000, 0.745541, -7.986515, 48.936776, -0.141447, -0.077862, 3.077739

1497961198.891809, 0.019548, -0.014050, 0.005498, 0.064000, -0.144000, 0.944000, 0.762953, -7.960928, 48.940676, -0.141378, -0.077807, 3.075326

1497961198.905383, 0.019548, -0.012523, 0.003665, 0.064000, -0.144000, 0.944000, 0.776935, -7.940380, 48.943794, -0.141311, -0.077736, 3.073073

1497961198.919091, 0.016493, -0.014966, 0.004887, 0.080000, -0.144000, 0.976000, 0.786216, -7.904413, 48.949468, -0.141204, -0.077981, 3.070409

1497961198.932676, 0.018021, -0.013134, 0.001833, 0.080000, -0.144000, 0.976000, 0.793626, -7.875694, 48.953977, -0.141077, -0.078203, 3.067917

1497961198.946314, 0.020464, -0.013134, 0.002138, 0.064000, -0.144000, 0.928000, 0.799543, -7.852754, 48.957566, -0.141063, -0.078166, 3.067486

1497961198.959914, 0.023824, -0.013744, -0.000305, 0.080000, -0.144000, 0.976000, 0.712283, -7.816689, 48.964684, -0.140858, -0.078398, 3.065472

1497961198.973543, 0.019242, -0.015577, -0.001222, 0.080000, -0.144000, 0.976000, 0.642536, -7.787841, 48.970246, -0.140716, -0.078651, 3.063730

1497961198.987120, 0.017104, -0.014966, 0.002443, 0.064000, -0.160000, 0.960000, 0.715874, -7.878599, 48.954708, -0.141005, -0.078630, 3.067523

1497961199.000748, 0.019242, -0.011301, 0.002138, 0.064000, -0.160000, 0.960000, 0.774554, -7.951189, 48.942077, -0.141254, -0.078553, 3.070692

1497961199.014415, 0.018937, -0.014661, 0.001222, 0.064000, -0.160000, 0.960000, 0.821503, -8.009249, 48.931844, -0.141498, -0.078519, 3.073341

1497961199.027992, 0.022907, -0.016493, 0.001833, 0.048000, -0.144000, 0.960000, 0.785586, -8.002080, 48.933606, -0.141256, -0.078132, 3.067260

1497961199.041655, 0.022297, -0.015577, 0.001527, 0.080000, -0.144000, 0.960000, 0.756838, -7.996338, 48.934998, -0.141119, -0.078408, 3.064934

1497961199.055230, 0.016493, -0.014966, 0.003665, 0.080000, -0.144000, 0.960000, 0.695984, -7.924997, 48.947505, -0.141064, -0.078667, 3.063164

1497961199.068858, 0.018631, -0.016493, 0.001222, 0.064000, -0.144000, 0.944000, 0.647410, -7.868036, 48.957360, -0.141017, -0.078641, 3.061839

1497961199.082424, 0.021075, -0.015577, 0.003665, 0.064000, -0.144000, 0.944000, 0.608622, -7.822537, 48.965148, -0.140944, -0.078600, 3.060948

1497961199.096115, 0.019242, -0.014966, 0.001833, 0.064000, -0.160000, 0.976000, 0.652575, -7.823071, 48.964497, -0.141143, -0.078550, 3.064193

1497961199.109702, 0.020769, -0.016493, 0.003054, 0.064000, -0.160000, 0.960000, 0.687846, -7.823495, 48.963946, -0.141377, -0.078554, 3.068393

1497961199.123288, 0.019548, -0.014966, 0.001527, 0.064000, -0.160000, 0.960000, 0.697740, -7.805887, 48.966617, -0.141621, -0.078541, 3.072634

1497961199.136995, 0.019242, -0.011606, 0.003971, 0.080000, -0.144000, 0.944000, 0.705671, -7.791771, 48.968751, -0.141565, -0.078786, 3.072241

1497961199.150579, 0.013744, -0.015272, 0.000611, 0.064000, -0.128000, 0.992000, 0.712027, -7.780458, 48.970458, -0.141055, -0.078753, 3.062987

1497961199.164226, 0.021991, -0.013134, 0.000305, 0.064000, -0.128000, 0.992000, 0.678970, -7.794739, 48.968656, -0.140446, -0.078689, 3.053941

1497961199.177813, 0.024129, -0.015577, -0.000000, 0.064000, -0.160000, 0.928000, 0.652580, -7.806136, 48.967200, -0.140762, -0.078774, 3.060276

1497961199.191440, 0.024129, -0.014661, 0.004887, 0.096000, -0.144000, 0.992000, 0.668877, -7.821561, 48.964518, -0.140530, -0.079289, 3.058551

1497961199.205041, 0.024435, -0.010079, 0.003665, 0.096000, -0.144000, 0.992000, 0.681917, -7.833900, 48.962366, -0.140297, -0.079735, 3.056764

1497961199.218639, 0.017410, -0.009468, 0.001222, 0.064000, -0.160000, 0.960000, 0.692350, -7.843772, 48.960639, -0.140592, -0.079628, 3.060923

1497961199.232333, 0.015882, -0.015272, 0.000916, 0.064000, -0.160000, 0.944000, 0.663873, -7.833770, 48.962635, -0.140958, -0.079641, 3.066016

1497961199.245901, 0.018021, -0.016799, 0.001833, 0.064000, -0.160000, 0.944000, 0.641087, -7.825764, 48.964218, -0.141291, -0.079668, 3.071053

1497961199.259549, 0.019853, -0.015577, 0.003971, 0.064000, -0.144000, 0.976000, 0.641291, -7.819320, 48.965245, -0.141113, -0.079561, 3.068042

1497961199.273139, 0.019548, -0.015272, 0.001222, 0.064000, -0.144000, 0.976000, 0.641454, -7.814164, 48.966066, -0.140941, -0.079457, 3.065092

1497961199.286777, 0.022297, -0.016188, 0.000916, 0.080000, -0.144000, 0.960000, 0.641585, -7.810039, 48.966723, -0.140807, -0.079720, 3.064001

1497961199.300324, 0.021686, -0.013134, 0.003360, 0.080000, -0.160000, 0.976000, 0.697044, -7.788629, 48.969375, -0.140956, -0.079939, 3.067048

1497961199.313971, 0.023518, -0.013744, 0.003360, 0.080000, -0.160000, 0.976000, 0.741416, -7.771490, 48.971446, -0.141076, -0.080162, 3.070160

1497961199.327580, 0.019242, -0.016493, 0.002443, 0.064000, -0.144000, 0.976000, 0.703116, -7.775943, 48.971304, -0.140911, -0.080060, 3.067373

1497961199.341170, 0.020159, -0.018326, 0.001222, 0.080000, -0.160000, 0.960000, 0.672474, -7.779502, 48.971169, -0.141127, -0.080383, 3.071122

1497961199.354939, 0.018937, -0.014661, 0.000916, 0.080000, -0.160000, 0.960000, 0.647961, -7.782347, 48.971047, -0.141351, -0.080652, 3.074754

1497961199.368518, 0.014661, -0.013744, -0.000000, 0.080000, -0.144000, 0.976000, 0.647055, -7.787776, 48.970196, -0.141261, -0.080833, 3.072835

1497961199.382149, 0.018631, -0.017715, 0.000305, 0.080000, -0.144000, 0.928000, 0.646330, -7.792121, 48.969515, -0.141268, -0.081152, 3.073176

1497961199.395757, 0.021380, -0.015272, 0.002138, 0.064000, -0.160000, 0.928000, 0.682388, -7.792326, 48.968993, -0.141613, -0.081174, 3.079302

1497961199.409366, 0.026878, -0.016188, 0.003360, 0.064000, -0.176000, 0.960000, 0.711225, -7.792487, 48.968557, -0.142117, -0.081267, 3.089256

1497961199.422936, 0.025045, -0.019853, 0.005192, 0.064000, -0.176000, 0.960000, 0.734290, -7.792614, 48.968196, -0.142639, -0.081397, 3.099110

1497961199.436551, 0.022907, -0.016188, 0.001833, 0.064000, -0.176000, 0.960000, 0.753709, -7.784285, 48.969226, -0.143174, -0.081479, 3.108831

1497961199.450195, 0.023518, -0.015577, 0.002749, 0.064000, -0.128000, 0.960000, 0.769277, -7.777606, 48.970045, -0.142590, -0.081417, 3.100357

1497961199.463759, 0.026267, -0.016188, -0.000000, 0.064000, -0.128000, 0.960000, 0.743792, -7.780803, 48.969931, -0.141981, -0.081365, 3.092077

1497961199.477432, 0.020464, -0.013744, 0.000916, 0.048000, -0.144000, 0.960000, 0.723423, -7.783356, 48.969831, -0.141786, -0.080895, 3.088187

1497961199.491015, 0.021075, -0.014661, 0.002138, 0.064000, -0.144000, 0.960000, 0.707139, -7.785396, 48.969744, -0.141634, -0.080775, 3.085939

1497961199.504652, 0.024435, -0.012828, 0.001833, 0.064000, -0.144000, 0.960000, 0.693631, -7.873829, 48.955796, -0.141435, -0.080632, 3.083073

1497961199.518224, 0.020464, -0.014355, 0.004276, 0.080000, -0.144000, 0.960000, 0.682842, -7.944434, 48.944540, -0.141320, -0.080836, 3.080848

1497961199.531830, 0.016799, -0.016799, 0.005192, 0.080000, -0.160000, 0.976000, 0.693700, -7.920717, 48.948231, -0.141528, -0.081065, 3.082781

