Using settings file RTIMULib_peter.ini
IMU Name: L3GD20 + LSM303DLHC
IMU Init Succeeded
Recommended Poll Interval: 10mS

Time, gyroX, gyroY, gyroZ, accelX, accelY, accelZ, magX, magY, magZ, phi, theta, psi

1495173736.499976, 0.018021, -0.012523, 0.002138, -0.000000, 0.064000, 0.976000, 8.214951, 2.726771, 48.828553, 0.065480, 0.000000, 0.057646

1495173736.513496, 0.021991, -0.013744, 0.000916, -0.000000, 0.064000, 0.976000, 8.214951, 2.726771, 48.828553, 0.065777, -0.000186, 0.057646

1495173736.526810, 0.015577, -0.014661, 0.001222, 0.016000, 0.064000, 0.992000, 8.239282, 2.571120, 48.832897, 0.065957, -0.000696, 0.058045

1495173736.540108, 0.017410, -0.016799, 0.001833, 0.016000, 0.064000, 0.992000, 8.251093, 2.495369, 48.834833, 0.066157, -0.001225, 0.058641

1495173736.553437, 0.019853, -0.016799, -0.000916, 0.032000, 0.048000, 0.976000, 8.341677, 2.588922, 48.814569, 0.066050, -0.002058, 0.056879

1495173736.566779, 0.022297, -0.011606, 0.003971, 0.016000, 0.064000, 0.992000, 8.399606, 2.648771, 48.801423, 0.066310, -0.002494, 0.057091

1495173736.580105, 0.025962, -0.016188, 0.006109, 0.016000, 0.064000, 0.992000, 8.439005, 2.689486, 48.792398, 0.066612, -0.002982, 0.057208

1495173736.593438, 0.018631, -0.019548, 0.001222, 0.016000, 0.064000, 0.992000, 8.395264, 2.606057, 48.804470, 0.066813, -0.003500, 0.057484

1495173736.606753, 0.021686, -0.019548, 0.003971, -0.000000, 0.048000, 0.976000, 8.363343, 2.545204, 48.813161, 0.066746, -0.003675, 0.056024

1495173736.620066, 0.016799, -0.013744, 0.001527, -0.000000, 0.048000, 0.976000, 8.315739, 2.498889, 48.823686, 0.066615, -0.003770, 0.054678

1495173736.633391, 0.016799, -0.014050, 0.005192, 0.016000, 0.048000, 0.992000, 8.279708, 2.463841, 48.831590, 0.066461, -0.004192, 0.053368

1495173736.646711, 0.019853, -0.013744, 0.003971, 0.016000, 0.048000, 0.992000, 8.252102, 2.436993, 48.837610, 0.066351, -0.004601, 0.052141

1495173736.660028, 0.020464, -0.014661, 0.003360, 0.016000, 0.048000, 0.992000, 8.294199, 2.456618, 48.829495, 0.066251, -0.005013, 0.050877

1495173736.673353, 0.023518, -0.015577, 0.003054, -0.000000, 0.064000, 0.992000, 8.327015, 2.471918, 48.823137, 0.066520, -0.005119, 0.051507

1495173736.686673, 0.021075, -0.017410, 0.003054, -0.000000, 0.064000, 0.992000, 8.327532, 2.444012, 48.824454, 0.066751, -0.005247, 0.052190

1495173736.699990, 0.017410, -0.016799, 0.002749, 0.016000, 0.064000, 0.992000, 8.327936, 2.422073, 48.825478, 0.066936, -0.005686, 0.053088

1495173736.713319, 0.014050, -0.012828, 0.000611, 0.016000, 0.064000, 0.960000, 8.328253, 2.404762, 48.826280, 0.067119, -0.006073, 0.054271

1495173736.726639, 0.020464, -0.013439, 0.000305, 0.016000, 0.064000, 0.960000, 8.320683, 2.394187, 48.828090, 0.067381, -0.006460, 0.055457

1495173736.739955, 0.015272, -0.012828, -0.000000, 0.016000, 0.064000, 1.008000, 8.314664, 2.385781, 48.829527, 0.067504, -0.006816, 0.056222

1495173736.753290, 0.017715, -0.015882, 0.001833, 0.016000, 0.064000, 1.008000, 8.345566, 2.434469, 48.821851, 0.067657, -0.007206, 0.056856

1495173736.766622, 0.019548, -0.014661, 0.002749, 0.016000, 0.064000, 0.992000, 8.370171, 2.473246, 48.815690, 0.067850, -0.007579, 0.057517

1495173736.779946, 0.016188, -0.016188, 0.002138, 0.016000, 0.064000, 0.992000, 8.389779, 2.504156, 48.810748, 0.067995, -0.007963, 0.058069

1495173736.793263, 0.015882, -0.017104, 0.001222, 0.016000, 0.064000, 0.992000, 8.387600, 2.510506, 48.810796, 0.068133, -0.008350, 0.058581

1495173736.806572, 0.019853, -0.014050, 0.005498, 0.016000, 0.032000, 1.008000, 8.385861, 2.515575, 48.810834, 0.067652, -0.008621, 0.054942

1495173736.819904, 0.017410, -0.013134, 0.001527, 0.048000, 0.032000, 0.992000, 8.417237, 2.481420, 48.807181, 0.067095, -0.009514, 0.050863

1495173736.833240, 0.021075, -0.016799, 0.001527, 0.048000, 0.032000, 0.992000, 8.442276, 2.454155, 48.804235, 0.066602, -0.010441, 0.046963

1495173736.846566, 0.024740, -0.014355, 0.005498, 0.016000, 0.064000, 0.992000, 8.462268, 2.432381, 48.801863, 0.066884, -0.010747, 0.047940

1495173736.859884, 0.025045, -0.013439, 0.005192, 0.016000, 0.064000, 0.992000, 8.470249, 2.473325, 48.798420, 0.067163, -0.011035, 0.048785

1495173736.873257, 0.021991, -0.018326, 0.006720, 0.016000, 0.048000, 0.976000, 8.476637, 2.506114, 48.795638, 0.067087, -0.011376, 0.047604

1495173736.886580, 0.018021, -0.016799, 0.003360, 0.016000, 0.048000, 0.976000, 8.481749, 2.532367, 48.793394, 0.066960, -0.011686, 0.046335

1495173736.899897, 0.020464, -0.013439, -0.000000, 0.016000, 0.048000, 0.976000, 8.483171, 2.460236, 48.796837, 0.066868, -0.011945, 0.045239

1495173736.913267, 0.019853, -0.015882, 0.004276, 0.016000, 0.048000, 0.992000, 8.484296, 2.402529, 48.799517, 0.066756, -0.012230, 0.044268

1495173736.926600, 0.018326, -0.015272, 0.004276, 0.016000, 0.112000, 1.008000, 8.488927, 2.389155, 48.799368, 0.067876, -0.012363, 0.050872

1495173736.939927, 0.024129, -0.013439, 0.002138, 0.016000, 0.064000, 1.008000, 8.492619, 2.378489, 48.799247, 0.068103, -0.012612, 0.051727

1495173736.953258, 0.025351, -0.014966, 0.002443, 0.016000, 0.064000, 0.992000, 8.495565, 2.369978, 48.799148, 0.068362, -0.012881, 0.052719

1495173736.966583, 0.017104, -0.014966, 0.002443, 0.016000, 0.064000, 0.992000, 8.472137, 2.421435, 48.800695, 0.068508, -0.013144, 0.053566

1495173736.979963, 0.018021, -0.014966, 0.002138, 0.016000, 0.032000, 0.992000, 8.453373, 2.462629, 48.801887, 0.068016, -0.013340, 0.050202

1495173736.993377, 0.018326, -0.014966, 0.003360, 0.016000, 0.080000, 0.992000, 8.456215, 2.495444, 48.799728, 0.068508, -0.013578, 0.052929

1495173737.006728, 0.014966, -0.015577, 0.002749, 0.016000, 0.080000, 0.992000, 8.458487, 2.521705, 48.797984, 0.068946, -0.013819, 0.055525

1495173737.020061, 0.019853, -0.014966, 0.004276, 0.016000, 0.064000, 0.992000, 8.460303, 2.542719, 48.796579, 0.069115, -0.014064, 0.056028

1495173737.033401, 0.023824, -0.014966, 0.007330, 0.016000, 0.064000, 0.992000, 8.462077, 2.522801, 48.797305, 0.069332, -0.014308, 0.056612

1495173737.046715, 0.014355, -0.016799, 0.004276, -0.000000, 0.064000, 0.976000, 8.463496, 2.506862, 48.797881, 0.069438, -0.014246, 0.057151

1495173737.060019, 0.015272, -0.019242, 0.005498, 0.048000, 0.064000, 1.008000, 8.461023, 2.511456, 48.798073, 0.069528, -0.015168, 0.057965

1495173737.073359, 0.020464, -0.015577, 0.003665, 0.048000, 0.064000, 1.008000, 8.459046, 2.515129, 48.798227, 0.069684, -0.016023, 0.058730

1495173737.086685, 0.020159, -0.016493, 0.003665, -0.000000, 0.080000, 1.008000, 8.457465, 2.518066, 48.798349, 0.070121, -0.015912, 0.060754

1495173737.100000, 0.015577, -0.013134, -0.001527, 0.016000, 0.064000, 1.008000, 8.495686, 2.484406, 48.793435, 0.070191, -0.016081, 0.061089

1495173737.113329, 0.014661, -0.017104, 0.001527, 0.016000, 0.064000, 1.008000, 8.526263, 2.457470, 48.789465, 0.070246, -0.016302, 0.061517

1495173737.126651, 0.017410, -0.014966, 0.003054, 0.016000, 0.064000, 1.008000, 8.443069, 2.491953, 48.802183, 0.070336, -0.016492, 0.061888

1495173737.139968, 0.015272, -0.016188, 0.003054, 0.016000, 0.064000, 1.008000, 8.376443, 2.519555, 48.812246, 0.070396, -0.016693, 0.062194

1495173737.153297, 0.014661, -0.011301, 0.003054, 0.016000, 0.048000, 1.008000, 8.323097, 2.541645, 48.820225, 0.070132, -0.016806, 0.060406

1495173737.166618, 0.020159, -0.013134, 0.003665, -0.000000, 0.064000, 0.976000, 8.277173, 2.539906, 48.828123, 0.070299, -0.016645, 0.060827

1495173737.179936, 0.016799, -0.013744, 0.004276, -0.000000, 0.064000, 0.976000, 8.240439, 2.538513, 48.834408, 0.070418, -0.016496, 0.061259

1495173737.193262, 0.014050, -0.012523, 0.000611, 0.032000, 0.064000, 0.992000, 8.296341, 2.522521, 48.825771, 0.070486, -0.016975, 0.061887

1495173737.206585, 0.017410, -0.012523, 0.000611, 0.016000, 0.064000, 0.992000, 8.341158, 2.509694, 48.818795, 0.070592, -0.017123, 0.062333

1495173737.219902, 0.013439, -0.016493, 0.000305, 0.016000, 0.064000, 0.992000, 8.377074, 2.499413, 48.813173, 0.070644, -0.017319, 0.062780

1495173737.233228, 0.016799, -0.016493, 0.000305, -0.000000, 0.064000, 0.976000, 8.327190, 2.489762, 48.822200, 0.070757, -0.017189, 0.063216

1495173737.246548, 0.018021, -0.014661, 0.005498, -0.000000, 0.064000, 0.976000, 8.287270, 2.482038, 48.829386, 0.070881, -0.017042, 0.063740

1495173737.259905, 0.019853, -0.011301, 0.001833, -0.000000, 0.064000, 1.008000, 8.270630, 2.506261, 48.830970, 0.070990, -0.016851, 0.063911

1495173737.273256, 0.018021, -0.017104, 0.001527, 0.016000, 0.064000, 0.992000, 8.257376, 2.525550, 48.832219, 0.071095, -0.017062, 0.064302

1495173737.286585, 0.021991, -0.014966, 0.001833, 0.016000, 0.064000, 0.992000, 8.246810, 2.540924, 48.833207, 0.071248, -0.017241, 0.064654

1495173737.299889, 0.018021, -0.014050, 0.002443, 0.016000, 0.064000, 0.992000, 8.291183, 2.521408, 48.826704, 0.071346, -0.017404, 0.065048

1495173737.313256, 0.021686, -0.015272, 0.004276, 0.016000, 0.064000, 0.960000, 8.326717, 2.505775, 48.821462, 0.071534, -0.017594, 0.065771

1495173737.326587, 0.021075, -0.014050, 0.003971, 0.016000, 0.064000, 0.960000, 8.320039, 2.420157, 48.826919, 0.071709, -0.017764, 0.066705

1495173737.339905, 0.018937, -0.011606, 0.004887, 0.016000, 0.048000, 0.992000, 8.314672, 2.351581, 48.831184, 0.071489, -0.017871, 0.065454

1495173737.353244, 0.018631, -0.013134, 0.003971, 0.016000, 0.048000, 0.992000, 8.310364, 2.296670, 48.834531, 0.071270, -0.017998, 0.064361

1495173737.366574, 0.015577, -0.009163, 0.003665, 0.016000, 0.080000, 1.008000, 8.295062, 2.346668, 48.834756, 0.071628, -0.018067, 0.067112

1495173737.379897, 0.017410, -0.010690, 0.003360, 0.032000, 0.064000, 0.992000, 8.282790, 2.386744, 48.834896, 0.071717, -0.018495, 0.068067

1495173737.393268, 0.022297, -0.018937, 0.002749, 0.032000, 0.064000, 0.992000, 8.272952, 2.418854, 48.834984, 0.071869, -0.019022, 0.068895

1495173737.406592, 0.018021, -0.018631, -0.001833, 0.016000, 0.064000, 1.008000, 8.265069, 2.444574, 48.835038, 0.071935, -0.019200, 0.069220

1495173737.419909, 0.017104, -0.012828, 0.000305, -0.000000, 0.032000, 0.992000, 8.258755, 2.465171, 48.835071, 0.071400, -0.018916, 0.065689

1495173737.433238, 0.020159, -0.015272, 0.000611, -0.000000, 0.032000, 0.992000, 8.264745, 2.497903, 48.832394, 0.070915, -0.018670, 0.062154

1495173737.446559, 0.015272, -0.016188, 0.002443, -0.000000, 0.064000, 0.992000, 8.269531, 2.524064, 48.830239, 0.070982, -0.018510, 0.062438

1495173737.459876, 0.020159, -0.014966, 0.002443, -0.000000, 0.064000, 0.992000, 8.273354, 2.544975, 48.828506, 0.071112, -0.018338, 0.062666

1495173737.473228, 0.018326, -0.014050, 0.001527, -0.016000, 0.064000, 1.040000, 8.240694, 2.543603, 48.834100, 0.071162, -0.017848, 0.062447

1495173737.486547, 0.013439, -0.012523, 0.002138, 0.032000, 0.048000, 0.976000, 8.214571, 2.542505, 48.838558, 0.070885, -0.018292, 0.060786

1495173737.499862, 0.016799, -0.013439, 0.003360, 0.032000, 0.048000, 0.976000, 8.247643, 2.522755, 48.834008, 0.070658, -0.018742, 0.059235

1495173737.513185, 0.016799, -0.014050, 0.002749, 0.016000, 0.048000, 1.024000, 8.274086, 2.506961, 48.830348, 0.070404, -0.018844, 0.057494

1495173737.526506, 0.017104, -0.013744, 0.002749, -0.000000, 0.048000, 1.008000, 8.295230, 2.494330, 48.827408, 0.070185, -0.018631, 0.055964

1495173737.539822, 0.016188, -0.014966, 0.001833, -0.000000, 0.048000, 1.008000, 8.318776, 2.504666, 48.822872, 0.069958, -0.018438, 0.054427

1495173737.553138, 0.020159, -0.013134, 0.006109, 0.016000, 0.064000, 1.008000, 8.337634, 2.512945, 48.819230, 0.070089, -0.018564, 0.054952

1495173737.566462, 0.018937, -0.010996, 0.002749, 0.016000, 0.064000, 1.008000, 8.338934, 2.533854, 48.817927, 0.070201, -0.018657, 0.055369

1495173737.579778, 0.018631, -0.010385, 0.002138, 0.032000, 0.064000, 1.008000, 8.339971, 2.550544, 48.816881, 0.070311, -0.019056, 0.055889

1495173737.593101, 0.014661, -0.015272, -0.000000, 0.016000, 0.064000, 0.992000, 8.340798, 2.563872, 48.816041, 0.070385, -0.019197, 0.056302

1495173737.606423, 0.018326, -0.017410, 0.000611, 0.016000, 0.064000, 0.992000, 8.277008, 2.540521, 48.828118, 0.070504, -0.019363, 0.056789

1495173737.619738, 0.017715, -0.011912, 0.000916, 0.032000, 0.064000, 0.976000, 8.225921, 2.521821, 48.837720, 0.070641, -0.019788, 0.057697

1495173737.633060, 0.024435, -0.014966, 0.004581, -0.000000, 0.064000, 0.992000, 8.256681, 2.506230, 48.833332, 0.070831, -0.019593, 0.058145

1495173737.646381, 0.024129, -0.017104, 0.001833, -0.000000, 0.064000, 0.992000, 8.281289, 2.493756, 48.829803, 0.071013, -0.019427, 0.058570

1495173737.659699, 0.017715, -0.012523, 0.001527, 0.032000, 0.048000, 0.992000, 8.300975, 2.483775, 48.826969, 0.070782, -0.019830, 0.057044

1495173737.673056, 0.017715, -0.010996, 0.003665, 0.032000, 0.048000, 0.992000, 8.338028, 2.476645, 48.821018, 0.070556, -0.020208, 0.055601

1495173737.686377, 0.020769, -0.015882, 0.003054, 0.016000, 0.064000, 0.976000, 8.367686, 2.470937, 48.816233, 0.070723, -0.020343, 0.056434

1495173737.699693, 0.020769, -0.013744, 0.003971, 0.032000, 0.064000, 1.008000, 8.345370, 2.463658, 48.820420, 0.070851, -0.020755, 0.057207

1495173737.713046, 0.023824, -0.014355, 0.002443, 0.032000, 0.064000, 1.008000, 8.327544, 2.457844, 48.823757, 0.071018, -0.021165, 0.057966

1495173737.726370, 0.018937, -0.013439, 0.004276, 0.016000, 0.048000, 0.992000, 8.313300, 2.453197, 48.826418, 0.070815, -0.021228, 0.056610

1495173737.739671, 0.020464, -0.012523, 0.003360, 0.032000, 0.048000, 0.976000, 8.322556, 2.523744, 48.821246, 0.070639, -0.021607, 0.055143

1495173737.752984, 0.020769, -0.010079, -0.076664, 0.032000, 0.048000, 0.976000, 8.329946, 2.580160, 48.817036, 0.070493, -0.021873, 0.052499

1495173737.766320, 0.016493, -0.014050, -0.000000, 0.016000, 0.064000, 0.992000, 8.318623, 2.552057, 48.820444, 0.070586, -0.021942, 0.053017

1495173737.779646, 0.017104, -0.013744, 0.003360, 0.016000, 0.064000, 0.992000, 8.309562, 2.529574, 48.823157, 0.070684, -0.022009, 0.053630

1495173737.792967, 0.020159, -0.014966, 0.001222, 0.016000, 0.080000, 1.008000, 8.302312, 2.511585, 48.825319, 0.071110, -0.022072, 0.056131

1495173737.806275, 0.018021, -0.016188, 0.002443, -0.000000, 0.064000, 0.976000, 8.335496, 2.516257, 48.819425, 0.071226, -0.021845, 0.056663

1495173737.819601, 0.017715, -0.013744, 0.002138, -0.000000, 0.064000, 0.976000, 8.362053, 2.519995, 48.814690, 0.071337, -0.021590, 0.057168

1495173737.832927, 0.021380, -0.013744, 0.003665, 0.016000, 0.048000, 1.008000, 8.350789, 2.542704, 48.815441, 0.071145, -0.021638, 0.055486

1495173737.846256, 0.017410, -0.015882, 0.002749, -0.000000, 0.064000, 1.024000, 8.341765, 2.560892, 48.816033, 0.071197, -0.021415, 0.055571

1495173737.859574, 0.021075, -0.013439, 0.002443, -0.000000, 0.064000, 1.024000, 8.334537, 2.575458, 48.816501, 0.071296, -0.021164, 0.055618

1495173737.872898, 0.022602, -0.014966, 0.003360, -0.000000, 0.064000, 0.976000, 8.378906, 2.603960, 48.807393, 0.071471, -0.020940, 0.055955

1495173737.886215, 0.024740, -0.016493, 0.005498, -0.000000, 0.064000, 0.976000, 8.414377, 2.626750, 48.800069, 0.071670, -0.020741, 0.056251

1495173737.899531, 0.021075, -0.017715, 0.003360, 0.032000, 0.048000, 0.992000, 8.442738, 2.644973, 48.794186, 0.071468, -0.021182, 0.054325

1495173737.912887, 0.019242, -0.016799, -0.000916, 0.032000, 0.048000, 0.992000, 8.465418, 2.659546, 48.789464, 0.071248, -0.021598, 0.052343

1495173737.926222, 0.016188, -0.011606, 0.000305, 0.032000, 0.048000, 0.992000, 8.483556, 2.671202, 48.785676, 0.070992, -0.021940, 0.050389

1495173737.939547, 0.018021, -0.018326, 0.002443, -0.000000, 0.048000, 0.992000, 8.501696, 2.663242, 48.782954, 0.070793, -0.021723, 0.048690

1495173737.952870, 0.018021, -0.017104, 0.002749, -0.000000, 0.048000, 0.976000, 8.516216, 2.656870, 48.780768, 0.070612, -0.021497, 0.047136

1495173737.966192, 0.018326, -0.012217, 0.004887, 0.016000, 0.048000, 0.976000, 8.527838, 2.651769, 48.779016, 0.070425, -0.021541, 0.045594

1495173737.979511, 0.016799, -0.014355, 0.003360, 0.016000, 0.080000, 0.992000, 8.504657, 2.667503, 48.782205, 0.070838, -0.021611, 0.047954

1495173737.992833, 0.016188, -0.014966, 0.001527, 0.016000, 0.080000, 0.992000, 8.486087, 2.680106, 48.784748, 0.071236, -0.021686, 0.050220

1495173738.006155, 0.018021, -0.014355, 0.001222, 0.016000, 0.064000, 0.992000, 8.476124, 2.593708, 48.791150, 0.071333, -0.021764, 0.050654

1495173738.019472, 0.020464, -0.014355, 0.001527, 0.016000, 0.048000, 0.992000, 8.468151, 2.524728, 48.796152, 0.071145, -0.021823, 0.049224

1495173738.032825, 0.016188, -0.013744, 0.001222, 0.016000, 0.048000, 0.992000, 8.461772, 2.469632, 48.800078, 0.070905, -0.021875, 0.047961

1495173738.046157, 0.018326, -0.011912, 0.003360, 0.032000, 0.048000, 0.976000, 8.463406, 2.445957, 48.800987, 0.070702, -0.022239, 0.046899

1495173738.059467, 0.020464, -0.016188, 0.003360, 0.032000, 0.048000, 0.976000, 8.464712, 2.427009, 48.801706, 0.070533, -0.022651, 0.045910

1495173738.072797, 0.022297, -0.018021, 0.004276, 0.032000, 0.064000, 1.008000, 8.451172, 2.431364, 48.803836, 0.070685, -0.023074, 0.046954

1495173738.086119, 0.018326, -0.014355, 0.002138, -0.000000, 0.064000, 1.008000, 8.440328, 2.434852, 48.805539, 0.070771, -0.022804, 0.047598

1495173738.099437, 0.019242, -0.016799, 0.001222, -0.000000, 0.064000, 1.008000, 8.431645, 2.437645, 48.806900, 0.070868, -0.022570, 0.048211

1495173738.112762, 0.026878, -0.016188, 0.003360, -0.000000, 0.080000, 0.992000, 8.396189, 2.473808, 48.811193, 0.071383, -0.022322, 0.050712

1495173738.126087, 0.022297, -0.014661, 0.002749, 0.016000, 0.064000, 0.992000, 8.367863, 2.502690, 48.814585, 0.071532, -0.022393, 0.051419

1495173738.139405, 0.021075, -0.014661, 0.002443, 0.016000, 0.064000, 0.992000, 8.366977, 2.471553, 48.816323, 0.071662, -0.022463, 0.052189

1495173738.152729, 0.019548, -0.016188, 0.002138, -0.000000, 0.064000, 0.992000, 8.366266, 2.446651, 48.817699, 0.071765, -0.022229, 0.052833

1495173738.166052, 0.021075, -0.015882, 0.004581, -0.000000, 0.064000, 0.992000, 8.365697, 2.426734, 48.818791, 0.071885, -0.021998, 0.053543

1495173738.179367, 0.019853, -0.016493, 0.004581, 0.016000, 0.064000, 0.976000, 8.389793, 2.430989, 48.814444, 0.072013, -0.022108, 0.054534

1495173738.192690, 0.018631, -0.020464, 0.003665, 0.016000, 0.064000, 0.992000, 8.409090, 2.434397, 48.810953, 0.072101, -0.022260, 0.055339

1495173738.206012, 0.020464, -0.014966, 0.004887, 0.016000, 0.064000, 0.992000, 8.402595, 2.509803, 48.808253, 0.072212, -0.022339, 0.055953

1495173738.219329, 0.018631, -0.010996, 0.001527, 0.016000, 0.064000, 0.992000, 8.397384, 2.570123, 48.806011, 0.072298, -0.022360, 0.056359

1495173738.232650, 0.017715, -0.015882, 0.001833, 0.016000, 0.064000, 1.024000, 8.393206, 2.618376, 48.804164, 0.072332, -0.022433, 0.056370

1495173738.245975, 0.020769, -0.016799, 0.003665, 0.016000, 0.064000, 1.024000, 8.401556, 2.581214, 48.804707, 0.072404, -0.022519, 0.056500

1495173738.259292, 0.014966, -0.014050, 0.003360, 0.016000, 0.064000, 0.992000, 8.408222, 2.551526, 48.805120, 0.072437, -0.022578, 0.056961

1495173738.272614, 0.016188, -0.014050, 0.001222, 0.016000, 0.064000, 0.992000, 8.356093, 2.582253, 48.812457, 0.072487, -0.022634, 0.057318

1495173738.285936, 0.017715, -0.013439, -0.001527, 0.016000, 0.064000, 0.992000, 8.314440, 2.606798, 48.818265, 0.072557, -0.022678, 0.057576

1495173738.299239, 0.018021, -0.012217, 0.002443, 0.016000, 0.064000, 1.008000, 8.281149, 2.626409, 48.822872, 0.072609, -0.022703, 0.057703

1495173738.312548, 0.022907, -0.016799, 0.003665, 0.016000, 0.064000, 1.008000, 8.315285, 2.588794, 48.819079, 0.072722, -0.022789, 0.057931

1495173738.325871, 0.014661, -0.015272, 0.002749, 0.032000, 0.080000, 1.008000, 8.342602, 2.558685, 48.816005, 0.073054, -0.023159, 0.060608

1495173738.339188, 0.016799, -0.015882, 0.001833, 0.032000, 0.016000, 1.008000, 8.368178, 2.498947, 48.814722, 0.072112, -0.023364, 0.054446

1495173738.352517, 0.020769, -0.010690, 0.002443, 0.032000, 0.016000, 1.008000, 8.388652, 2.451101, 48.813634, 0.071242, -0.023509, 0.048567

1495173738.365847, 0.020159, -0.013439, 0.001527, 0.032000, 0.064000, 0.992000, 8.405040, 2.412788, 48.812724, 0.071374, -0.023863, 0.049747

1495173738.379168, 0.019853, -0.016188, 0.003360, 0.032000, 0.064000, 0.992000, 8.396409, 2.436358, 48.813039, 0.071498, -0.024247, 0.050858

1495173738.392492, 0.018021, -0.014355, 0.001527, 0.016000, 0.080000, 0.992000, 8.389503, 2.455211, 48.813281, 0.071901, -0.024260, 0.053683

1495173738.405815, 0.018631, -0.012828, 0.000611, 0.016000, 0.048000, 1.008000, 8.383979, 2.470292, 48.813470, 0.071664, -0.024242, 0.052225

1495173738.419133, 0.016799, -0.010690, 0.000916, 0.016000, 0.048000, 1.008000, 8.379559, 2.482355, 48.813617, 0.071408, -0.024197, 0.050769

1495173738.432456, 0.016493, -0.016188, 0.004887, -0.000000, 0.064000, 1.008000, 8.376024, 2.492005, 48.813732, 0.071457, -0.023930, 0.051249

1495173738.445777, 0.015577, -0.012828, 0.000305, 0.016000, 0.064000, 1.024000, 8.345290, 2.478503, 48.819683, 0.071478, -0.023933, 0.051722

1495173738.459094, 0.019548, -0.012523, 0.003971, 0.016000, 0.064000, 1.024000, 8.320751, 2.467724, 48.824417, 0.071549, -0.023935, 0.052267

1495173738.472415, 0.018021, -0.013744, 0.001833, 0.016000, 0.048000, 0.992000, 8.301152, 2.459115, 48.828187, 0.071325, -0.023944, 0.050978

1495173738.485777, 0.022907, -0.015272, 0.004276, 0.016000, 0.048000, 0.992000, 8.371055, 2.364044, 48.820948, 0.071168, -0.023979, 0.049997

1495173738.499173, 0.021380, -0.014050, 0.004276, 0.016000, 0.064000, 0.992000, 8.427030, 2.287859, 48.814948, 0.071308, -0.024014, 0.051282

1495173738.512517, 0.017715, -0.017715, 0.003971, -0.000000, 0.048000, 0.992000, 8.449553, 2.354403, 48.807890, 0.071092, -0.023757, 0.050314

1495173738.525851, 0.016188, -0.013134, 0.004276, -0.000000, 0.048000, 0.992000, 8.467562, 2.407644, 48.802171, 0.070861, -0.023445, 0.049248

1495173738.539175, 0.019242, -0.017715, 0.003971, -0.000000, 0.064000, 0.992000, 8.481963, 2.450240, 48.797550, 0.070975, -0.023212, 0.049939

1495173738.552490, 0.014661, -0.012828, 0.000305, 0.016000, 0.064000, 0.976000, 8.440131, 2.466456, 48.803986, 0.071053, -0.023245, 0.050843

1495173738.565822, 0.013744, -0.015882, -0.000000, 0.016000, 0.064000, 0.976000, 8.406645, 2.479434, 48.809108, 0.071119, -0.023317, 0.051699

1495173738.579143, 0.013439, -0.013134, 0.000305, -0.000000, 0.080000, 1.008000, 8.355493, 2.451295, 48.819311, 0.071429, -0.023013, 0.054019

1495173738.592467, 0.013134, -0.012523, 0.000305, -0.000000, 0.080000, 1.008000, 8.314604, 2.428805, 48.827416, 0.071729, -0.022708, 0.056364

1495173738.605800, 0.018631, -0.014966, 0.003665, 0.016000, 0.048000, 0.992000, 8.281914, 2.410825, 48.833862, 0.071509, -0.022760, 0.055144

1495173738.619124, 0.024435, -0.014966, 0.003054, -0.000000, 0.064000, 0.992000, 8.319265, 2.417258, 48.827195, 0.071678, -0.022505, 0.055823

1495173738.632445, 0.017410, -0.016493, 0.005498, -0.000000, 0.064000, 0.992000, 8.349182, 2.422410, 48.821833, 0.071752, -0.022277, 0.056499

1495173738.645767, 0.016493, -0.011912, 0.001833, 0.016000, 0.064000, 1.008000, 8.354970, 2.463380, 48.818792, 0.071799, -0.022308, 0.057053

1495173738.659085, 0.018937, -0.012828, 0.000916, 0.016000, 0.080000, 0.976000, 8.359601, 2.496185, 48.816333, 0.072237, -0.022343, 0.059829

1495173738.672414, 0.018021, -0.017410, 0.001833, 0.016000, 0.080000, 0.976000, 8.363305, 2.522446, 48.814349, 0.072655, -0.022440, 0.062488

1495173738.685740, 0.020159, -0.013744, 0.001527, 0.016000, 0.064000, 0.992000, 8.374381, 2.485186, 48.814361, 0.072752, -0.022495, 0.062989

1495173738.699056, 0.018937, -0.017410, 0.001222, 0.016000, 0.064000, 0.992000, 8.383223, 2.455429, 48.814349, 0.072830, -0.022597, 0.063547

1495173738.712377, 0.020769, -0.012523, 0.002138, 0.016000, 0.080000, 0.992000, 8.396802, 2.470295, 48.811265, 0.073246, -0.022623, 0.066086

1495173738.725700, 0.018021, -0.014966, 0.001222, -0.000000, 0.048000, 1.008000, 8.407668, 2.482191, 48.808791, 0.072987, -0.022345, 0.064396

1495173738.739003, 0.020769, -0.017104, 0.001222, -0.000000, 0.048000, 1.008000, 8.416361, 2.491709, 48.806808, 0.072768, -0.022101, 0.062715

1495173738.752320, 0.018326, -0.015577, 0.001527, -0.016000, 0.064000, 0.992000, 8.355471, 2.482624, 48.817732, 0.072837, -0.021542, 0.062923

1495173738.765655, 0.019242, -0.016799, 0.002749, -0.016000, 0.064000, 1.008000, 8.306685, 2.475343, 48.826427, 0.072897, -0.021017, 0.063059

1495173738.778977, 0.021075, -0.016799, 0.002443, -0.000000, 0.064000, 1.008000, 8.353322, 2.504442, 48.816985, 0.072981, -0.020818, 0.063235

1495173738.792305, 0.019242, -0.013744, 0.001833, 0.016000, 0.048000, 0.992000, 8.390606, 2.527708, 48.809391, 0.072743, -0.020884, 0.061547

1495173738.805638, 0.013439, -0.020464, 0.002138, 0.016000, 0.048000, 0.992000, 8.420417, 2.546311, 48.803290, 0.072435, -0.021037, 0.059842

1495173738.818984, 0.017104, -0.015882, 0.002749, -0.000000, 0.064000, 1.008000, 8.405448, 2.523798, 48.807040, 0.072476, -0.020827, 0.060031

1495173738.832315, 0.020464, -0.017104, 0.004581, 0.016000, 0.048000, 0.992000, 8.393479, 2.505799, 48.810027, 0.072264, -0.020941, 0.058497

1495173738.845644, 0.019853, -0.013439, 0.002749, 0.016000, 0.048000, 0.992000, 8.380809, 2.453751, 48.814848, 0.072049, -0.021005, 0.057110

1495173738.858966, 0.019853, -0.014355, 0.002749, -0.000000, 0.080000, 1.008000, 8.370677, 2.412157, 48.818660, 0.072426, -0.020767, 0.059437

1495173738.872290, 0.017104, -0.014050, 0.002443, -0.000000, 0.080000, 1.008000, 8.362574, 2.378910, 48.821680, 0.072760, -0.020530, 0.061795

1495173738.885615, 0.022297, -0.010079, 0.003971, -0.000000, 0.064000, 0.976000, 8.334295, 2.424705, 48.824262, 0.072899, -0.020257, 0.062458

1495173738.898932, 0.019853, -0.016493, 0.001222, 0.016000, 0.064000, 0.992000, 8.311694, 2.461291, 48.826284, 0.072987, -0.020392, 0.063031

1495173738.912255, 0.018326, -0.014050, -0.000916, 0.016000, 0.064000, 0.992000, 8.293627, 2.490527, 48.827874, 0.073055, -0.020490, 0.063495

1495173738.925611, 0.017715, -0.015577, 0.003971, 0.016000, 0.064000, 0.992000, 8.279183, 2.513896, 48.829128, 0.073113, -0.020612, 0.063954

1495173738.938936, 0.023518, -0.015882, 0.005192, 0.032000, 0.064000, 0.992000, 8.267634, 2.532578, 48.830119, 0.073248, -0.021057, 0.064564

1495173738.952263, 0.020769, -0.015272, 0.003665, 0.032000, 0.064000, 0.992000, 8.328459, 2.570500, 48.817800, 0.073345, -0.021484, 0.065012

1495173738.965587, 0.019853, -0.013439, 0.004581, 0.016000, 0.064000, 0.992000, 8.377244, 2.600920, 48.807840, 0.073424, -0.021556, 0.065198

1495173738.978907, 0.018631, -0.016799, 0.001222, 0.016000, 0.064000, 0.992000, 8.416353, 2.625309, 48.799805, 0.073487, -0.021667, 0.065260

1495173738.992229, 0.019853, -0.014661, 0.002138, 0.016000, 0.064000, 0.976000, 8.427228, 2.552265, 48.801804, 0.073585, -0.021755, 0.065660

1495173739.005556, 0.018021, -0.016188, 0.000305, 0.016000, 0.064000, 1.008000, 8.435922, 2.493767, 48.803326, 0.073616, -0.021849, 0.065909

1495173739.018874, 0.015882, -0.017104, -0.000611, 0.016000, 0.064000, 1.008000, 8.388168, 2.575891, 48.807291, 0.073620, -0.021952, 0.065936

1495173739.032196, 0.017715, -0.017410, 0.002138, 0.016000, 0.064000, 0.992000, 8.349915, 2.641632, 48.810337, 0.073667, -0.022063, 0.065966

1495173739.045506, 0.020769, -0.013744, 0.002749, -0.000000, 0.048000, 0.992000, 8.319279, 2.694252, 48.812692, 0.073454, -0.021777, 0.063877

1495173739.058812, 0.021686, -0.012217, 0.003054, -0.000000, 0.048000, 0.992000, 8.338008, 2.664749, 48.811115, 0.073256, -0.021479, 0.061907

1495173739.072135, 0.018937, -0.013134, 0.000611, -0.000000, 0.064000, 0.992000, 8.353016, 2.641105, 48.809835, 0.073327, -0.021221, 0.061878

1495173739.085458, 0.018021, -0.014050, 0.003665, -0.000000, 0.064000, 0.992000, 8.351223, 2.636259, 48.810403, 0.073384, -0.020983, 0.061901

1495173739.098772, 0.017410, -0.014966, 0.002749, 0.032000, 0.064000, 1.008000, 8.349792, 2.632390, 48.810857, 0.073412, -0.021395, 0.062052

1495173739.112095, 0.018631, -0.015577, 0.002443, 0.016000, 0.048000, 0.992000, 8.348648, 2.629299, 48.811219, 0.073159, -0.021470, 0.060122

1495173739.125417, 0.014355, -0.018326, 0.003360, 0.016000, 0.048000, 0.992000, 8.341429, 2.569713, 48.815627, 0.072855, -0.021583, 0.058398

1495173739.138730, 0.020159, -0.015882, 0.002749, 0.016000, 0.080000, 0.992000, 8.335658, 2.522152, 48.819093, 0.073263, -0.021673, 0.060944

1495173739.152053, 0.017104, -0.016188, 0.000611, 0.016000, 0.064000, 0.992000, 8.329512, 2.562714, 48.818029, 0.073308, -0.021775, 0.061269

1495173739.165375, 0.022602, -0.014966, 0.003971, 0.016000, 0.064000, 0.992000, 8.324580, 2.595233, 48.817153, 0.073424, -0.021861, 0.061546

1495173739.178691, 0.014966, -0.015882, 0.003360, 0.016000, 0.064000, 0.976000, 8.320625, 2.621293, 48.816435, 0.073459, -0.021962, 0.061880

1495173739.192018, 0.020464, -0.014966, 0.003360, 0.016000, 0.064000, 0.976000, 8.339806, 2.619197, 48.813274, 0.073566, -0.022049, 0.062209

1495173739.205340, 0.017104, -0.015577, 0.005498, 0.016000, 0.064000, 0.976000, 8.355120, 2.617524, 48.810745, 0.073625, -0.022145, 0.062559

1495173739.218655, 0.018937, -0.015882, 0.003971, 0.016000, 0.048000, 0.992000, 8.335710, 2.544286, 48.817935, 0.073372, -0.022213, 0.060864

1495173739.231975, 0.019242, -0.014966, 0.003971, 0.016000, 0.048000, 0.992000, 8.320171, 2.485702, 48.823604, 0.073126, -0.022270, 0.059359

1495173739.245297, 0.021686, -0.013134, 0.004276, -0.000000, 0.064000, 0.992000, 8.307733, 2.438840, 48.828085, 0.073229, -0.022002, 0.059921

1495173739.258613, 0.019242, -0.013744, 0.004276, 0.032000, 0.048000, 0.992000, 8.329780, 2.436711, 48.824435, 0.072975, -0.022372, 0.058544

1495173739.271934, 0.017715, -0.016188, 0.003665, 0.032000, 0.048000, 0.992000, 8.347396, 2.435009, 48.821511, 0.072707, -0.022766, 0.057189

1495173739.285255, 0.018326, -0.011301, 0.005498, 0.016000, 0.032000, 1.008000, 8.325688, 2.452251, 48.824355, 0.072139, -0.022710, 0.053731

1495173739.298559, 0.019853, -0.014050, 0.005803, 0.016000, 0.032000, 1.008000, 8.308329, 2.466037, 48.826618, 0.071602, -0.022692, 0.050302

1495173739.311865, 0.018021, -0.016799, 0.001833, -0.000000, 0.080000, 0.960000, 8.294446, 2.477061, 48.828420, 0.072037, -0.022443, 0.053082

1495173739.325188, 0.017715, -0.016188, 0.002749, -0.000000, 0.048000, 0.976000, 8.301310, 2.467436, 48.827741, 0.071823, -0.022194, 0.051887

1495173739.338503, 0.019853, -0.014050, 0.001833, -0.000000, 0.048000, 0.976000, 8.306800, 2.459738, 48.827196, 0.071641, -0.021922, 0.050724

1495173739.351830, 0.015577, -0.013134, 0.001527, 0.016000, 0.080000, 0.992000, 8.332223, 2.472715, 48.822208, 0.072013, -0.021966, 0.053539

1495173739.365159, 0.017410, -0.015577, 0.004581, 0.016000, 0.064000, 0.992000, 8.352567, 2.483099, 48.818205, 0.072085, -0.022058, 0.054268

1495173739.378478, 0.021380, -0.015272, 0.003665, 0.016000, 0.064000, 0.992000, 8.368845, 2.491409, 48.814993, 0.072208, -0.022144, 0.054944

1495173739.391801, 0.018326, -0.014661, 0.001833, 0.016000, 0.032000, 0.992000, 8.334880, 2.537179, 48.818447, 0.071661, -0.022144, 0.051322

1495173739.405126, 0.018326, -0.013744, 0.001833, 0.016000, 0.032000, 0.992000, 8.307648, 2.573864, 48.821168, 0.071125, -0.022134, 0.047669

1495173739.418443, 0.017715, -0.014050, -0.001833, 0.016000, 0.080000, 0.976000, 8.285824, 2.603254, 48.823319, 0.071562, -0.022185, 0.050360

1495173739.431766, 0.018937, -0.012217, 0.003054, -0.000000, 0.064000, 1.008000, 8.268339, 2.626795, 48.825022, 0.071644, -0.021904, 0.050524

1495173739.445087, 0.016493, -0.011606, 0.003360, -0.000000, 0.064000, 1.008000, 8.254336, 2.645645, 48.826374, 0.071693, -0.021621, 0.050646

1495173739.458402, 0.020159, -0.016188, 0.004276, 0.016000, 0.064000, 0.992000, 8.304694, 2.638497, 48.818220, 0.071809, -0.021726, 0.051029

1495173739.471761, 0.017715, -0.013439, 0.001833, 0.016000, 0.048000, 0.976000, 8.344895, 2.632789, 48.811673, 0.071592, -0.021778, 0.049406

1495173739.485087, 0.017715, -0.014050, 0.002138, 0.016000, 0.048000, 0.976000, 8.377000, 2.628228, 48.806419, 0.071379, -0.021837, 0.047833

1495173739.498407, 0.018937, -0.014355, 0.001833, -0.000000, 0.064000, 0.992000, 8.391814, 2.608570, 48.804929, 0.071483, -0.021590, 0.048171

1495173739.511731, 0.013744, -0.015577, -0.000305, -0.000000, 0.064000, 0.992000, 8.403671, 2.592833, 48.803727, 0.071518, -0.021363, 0.048509

1495173739.525052, 0.018326, -0.013134, 0.001527, -0.000000, 0.064000, 0.992000, 8.413482, 2.543594, 48.804628, 0.071610, -0.021110, 0.048981

1495173739.538368, 0.015577, -0.014050, 0.002749, 0.032000, 0.048000, 0.992000, 8.421328, 2.504183, 48.805313, 0.071341, -0.021501, 0.047605

1495173739.551668, 0.017715, -0.015577, 0.000916, 0.032000, 0.048000, 0.992000, 8.427603, 2.472642, 48.805838, 0.071106, -0.021904, 0.046325

1495173739.564992, 0.019853, -0.013134, -0.000000, 0.016000, 0.064000, 0.992000, 8.393207, 2.483372, 48.811220, 0.071229, -0.021961, 0.047129

1495173739.578336, 0.016493, -0.011606, 0.003054, 0.016000, 0.064000, 1.008000, 8.365696, 2.491952, 48.815505, 0.071286, -0.021996, 0.047810

1495173739.591671, 0.016188, -0.013744, 0.004276, 0.016000, 0.064000, 1.008000, 8.379213, 2.516821, 48.811911, 0.071337, -0.022058, 0.048423

1495173739.605008, 0.022907, -0.014966, 0.007025, 0.016000, 0.048000, 0.992000, 8.390019, 2.536707, 48.809025, 0.071179, -0.022125, 0.047073

1495173739.618325, 0.020159, -0.013744, 0.003360, 0.016000, 0.048000, 0.992000, 8.398659, 2.552608, 48.806710, 0.070990, -0.022170, 0.045663

1495173739.631644, 0.015882, -0.014050, 0.002443, 0.016000, 0.064000, 1.024000, 8.377044, 2.531082, 48.811546, 0.071024, -0.022226, 0.046130

1495173739.645009, 0.014050, -0.011912, 0.003665, 0.032000, 0.064000, 0.992000, 8.359722, 2.513833, 48.815407, 0.071080, -0.022587, 0.047108

1495173739.658333, 0.010996, -0.012828, 0.003665, 0.032000, 0.064000, 0.992000, 8.356908, 2.497827, 48.816710, 0.071094, -0.022952, 0.048113

1495173739.671656, 0.011606, -0.016493, 0.000305, -0.000000, 0.048000, 0.992000, 8.354657, 2.485030, 48.817749, 0.070805, -0.022695, 0.046851

1495173739.684983, 0.017410, -0.015577, -0.000611, -0.000000, 0.048000, 0.992000, 8.352858, 2.474797, 48.818577, 0.070597, -0.022430, 0.045627

1495173739.698300, 0.017715, -0.016799, 0.001833, 0.016000, 0.048000, 0.976000, 8.404615, 2.502789, 48.808265, 0.070403, -0.022516, 0.044455

1495173739.711623, 0.014355, -0.012828, 0.003054, 0.016000, 0.048000, 0.976000, 8.445983, 2.525163, 48.799971, 0.070168, -0.022551, 0.043268

1495173739.724949, 0.016188, -0.013744, 0.003054, 0.016000, 0.048000, 0.976000, 8.429504, 2.489611, 48.804647, 0.069962, -0.022598, 0.042197

1495173739.738252, 0.018631, -0.018631, 0.000305, 0.032000, 0.064000, 0.992000, 8.416307, 2.461148, 48.808368, 0.070100, -0.023035, 0.043340

1495173739.751563, 0.021380, -0.017104, -0.001527, 0.016000, 0.064000, 0.992000, 8.405741, 2.438364, 48.811332, 0.070263, -0.023120, 0.044295

1495173739.764904, 0.015577, -0.015577, 0.002749, 0.016000, 0.064000, 0.992000, 8.368759, 2.472270, 48.815981, 0.070346, -0.023188, 0.045209

1495173739.778226, 0.021075, -0.014661, 0.001222, 0.016000, 0.064000, 0.976000, 8.339221, 2.499344, 48.819657, 0.070521, -0.023246, 0.046160

1495173739.791545, 0.018326, -0.014355, 0.002138, 0.016000, 0.064000, 0.976000, 8.350529, 2.507619, 48.817300, 0.070656, -0.023299, 0.047080

1495173739.804866, 0.018021, -0.018937, 0.003971, -0.000000, 0.048000, 1.008000, 8.359597, 2.514255, 48.815407, 0.070445, -0.023068, 0.045725

1495173739.818191, 0.019548, -0.017715, 0.005498, 0.016000, 0.080000, 0.992000, 8.366865, 2.519574, 48.813887, 0.070889, -0.023151, 0.048549

1495173739.831513, 0.017410, -0.012828, 0.003971, 0.016000, 0.080000, 0.992000, 8.376594, 2.556242, 48.810312, 0.071298, -0.023168, 0.051204

1495173739.844845, 0.024129, -0.018021, 0.006109, 0.032000, 0.064000, 1.008000, 8.384360, 2.585520, 48.807436, 0.071456, -0.023581, 0.051739

1495173739.858161, 0.020769, -0.014050, 0.004887, 0.016000, 0.048000, 0.976000, 8.338026, 2.499521, 48.819852, 0.071284, -0.023610, 0.050495

1495173739.871483, 0.021686, -0.012217, 0.003665, 0.016000, 0.048000, 0.976000, 8.300959, 2.430759, 48.829640, 0.071127, -0.023616, 0.049445

1495173739.884851, 0.021075, -0.016188, 0.003054, 0.016000, 0.064000, 1.008000, 8.271306, 2.375775, 48.837378, 0.071245, -0.023678, 0.050406

1495173739.898169, 0.017104, -0.009774, 0.002138, 0.016000, 0.064000, 1.008000, 8.246703, 2.441637, 48.838290, 0.071308, -0.023654, 0.051174

1495173739.911486, 0.015272, -0.013744, -0.000305, 0.016000, 0.064000, 1.008000, 8.227019, 2.494294, 48.838949, 0.071347, -0.023678, 0.051756

1495173739.924848, 0.019853, -0.016188, 0.001222, -0.000000, 0.048000, 0.992000, 8.221598, 2.502866, 48.839423, 0.071163, -0.023402, 0.050387

1495173739.938163, 0.019242, -0.015882, -0.000305, -0.000000, 0.048000, 0.992000, 8.270840, 2.509272, 48.830779, 0.070974, -0.023125, 0.049012

1495173739.951480, 0.012828, -0.013439, -0.000611, 0.016000, 0.064000, 0.992000, 8.310274, 2.514402, 48.823820, 0.071009, -0.023161, 0.049694

1495173739.964840, 0.015272, -0.014050, 0.003360, 0.016000, 0.064000, 0.992000, 8.299659, 2.480105, 48.827380, 0.071074, -0.023209, 0.050507

1495173739.978178, 0.018937, -0.013744, 0.002749, 0.016000, 0.064000, 0.992000, 8.291168, 2.452678, 48.830207, 0.071185, -0.023252, 0.051371

1495173739.991667, 0.015272, -0.017715, 0.000611, 0.016000, 0.064000, 1.008000, 8.284376, 2.430743, 48.832457, 0.071229, -0.023340, 0.052111

1495173740.005023, 0.017715, -0.016188, 0.003360, 0.016000, 0.064000, 1.008000, 8.320957, 2.469884, 48.824273, 0.071301, -0.023407, 0.052761

1495173740.018362, 0.018021, -0.017104, 0.003054, 0.016000, 0.064000, 0.992000, 8.350242, 2.501223, 48.817677, 0.071396, -0.023489, 0.053437

1495173740.031689, 0.016188, -0.013439, 0.001527, 0.016000, 0.048000, 0.944000, 8.298650, 2.544259, 48.824250, 0.071200, -0.023522, 0.052212

1495173740.045012, 0.017410, -0.017104, -0.000000, 0.016000, 0.048000, 0.944000, 8.257354, 2.578695, 48.829445, 0.071024, -0.023600, 0.050895

1495173740.058318, 0.016188, -0.018631, 0.000611, 0.016000, 0.064000, 0.992000, 8.224304, 2.606247, 48.833560, 0.071102, -0.023694, 0.051327

1495173740.071639, 0.020769, -0.015882, 0.004887, 0.016000, 0.064000, 0.992000, 8.249103, 2.516694, 48.834074, 0.071236, -0.023756, 0.052041

1495173740.084971, 0.019242, -0.015577, 0.003054, 0.016000, 0.064000, 0.992000, 8.268908, 2.445097, 48.834362, 0.071347, -0.023811, 0.052903

1495173740.098287, 0.020769, -0.021075, 0.003054, 0.032000, 0.048000, 1.024000, 8.273153, 2.444998, 48.833648, 0.071123, -0.024218, 0.051402

1495173740.111606, 0.019853, -0.017715, 0.004581, 0.032000, 0.048000, 1.024000, 8.276553, 2.444919, 48.833076, 0.070890, -0.024574, 0.049954

1495173740.124934, 0.022297, -0.015882, 0.001833, -0.000000, 0.064000, 1.024000, 8.279275, 2.444856, 48.832618, 0.071006, -0.024294, 0.050427

1495173740.138250, 0.022297, -0.015882, 0.003665, 0.016000, 0.080000, 0.992000, 8.274246, 2.497876, 48.830787, 0.071474, -0.024327, 0.053240

1495173740.151568, 0.016188, -0.015272, 0.001527, 0.016000, 0.080000, 0.992000, 8.270220, 2.540245, 48.829283, 0.071854, -0.024351, 0.055861

1495173740.164896, 0.016799, -0.012523, 0.002749, -0.000000, 0.048000, 1.008000, 8.231258, 2.574429, 48.834076, 0.071608, -0.024010, 0.054169

1495173740.178210, 0.021380, -0.012523, 0.002443, 0.016000, 0.064000, 0.976000, 8.200096, 2.601761, 48.837870, 0.071762, -0.024024, 0.054723

1495173740.191528, 0.021991, -0.013744, 0.000611, 0.016000, 0.064000, 0.976000, 8.175170, 2.623617, 48.840879, 0.071922, -0.024051, 0.055188

1495173740.204855, 0.019548, -0.014966, -0.000000, 0.016000, 0.064000, 1.008000, 8.230692, 2.568204, 48.834499, 0.072006, -0.024084, 0.055494

1495173740.218171, 0.023213, -0.014050, 0.004581, 0.016000, 0.064000, 1.008000, 8.275103, 2.523859, 48.829305, 0.072134, -0.024108, 0.055962

1495173740.231487, 0.020769, -0.016188, 0.005192, -0.000000, 0.064000, 1.008000, 8.291819, 2.598548, 48.822552, 0.072228, -0.023842, 0.056103

1495173740.244859, 0.021380, -0.016799, 0.001527, -0.000000, 0.048000, 0.976000, 8.305176, 2.658296, 48.817064, 0.072067, -0.023566, 0.054371

1495173740.258173, 0.019853, -0.012828, 0.003360, -0.000000, 0.048000, 0.976000, 8.315854, 2.706092, 48.812620, 0.071888, -0.023245, 0.052587

1495173740.271488, 0.024435, -0.013439, 0.003360, 0.016000, 0.064000, 1.040000, 8.293040, 2.635741, 48.820350, 0.071998, -0.023264, 0.052542

1495173740.284848, 0.021075, -0.016799, 0.004276, -0.000000, 0.064000, 0.976000, 8.274754, 2.579390, 48.826463, 0.072138, -0.023024, 0.053031

1495173740.298151, 0.017715, -0.015577, 0.004581, -0.000000, 0.064000, 0.976000, 8.292666, 2.514561, 48.826806, 0.072228, -0.022773, 0.053667

1495173740.311450, 0.018021, -0.016799, 0.003054, 0.016000, 0.064000, 1.008000, 8.306981, 2.462703, 48.827015, 0.072284, -0.022858, 0.054303

1495173740.324779, 0.021991, -0.014966, 0.004887, 0.016000, 0.064000, 1.008000, 8.318425, 2.421220, 48.827142, 0.072390, -0.022920, 0.055059

1495173740.338096, 0.016188, -0.016493, 0.002749, 0.016000, 0.048000, 1.008000, 8.348088, 2.480669, 48.819094, 0.072110, -0.022978, 0.053568

1495173740.351446, 0.016799, -0.014050, -0.001222, -0.000000, 0.048000, 1.008000, 8.371817, 2.528242, 48.812590, 0.071858, -0.022682, 0.051987

1495173740.364804, 0.018631, -0.015577, 0.000305, -0.000000, 0.048000, 1.008000, 8.345619, 2.471777, 48.819967, 0.071632, -0.022415, 0.050590

1495173740.378131, 0.021075, -0.016188, 0.002749, 0.032000, 0.048000, 0.992000, 8.324684, 2.426674, 48.825804, 0.071436, -0.022811, 0.049407

1495173740.391453, 0.023213, -0.016493, 0.004581, 0.016000, 0.064000, 1.024000, 8.307951, 2.390635, 48.830432, 0.071555, -0.022889, 0.050209

1495173740.404783, 0.019853, -0.016493, 0.004276, 0.016000, 0.064000, 1.024000, 8.326864, 2.360579, 48.828673, 0.071627, -0.022966, 0.051065

1495173740.418103, 0.020769, -0.014661, 0.003360, 0.016000, 0.048000, 0.976000, 8.341964, 2.336576, 48.827250, 0.071451, -0.023018, 0.050246

1495173740.431418, 0.021991, -0.014661, 0.003665, 0.016000, 0.048000, 0.976000, 8.328272, 2.357130, 48.828599, 0.071294, -0.023070, 0.049395

1495173740.444745, 0.020769, -0.010690, 0.004581, -0.000000, 0.064000, 1.008000, 8.317302, 2.373593, 48.829671, 0.071398, -0.022755, 0.050198

1495173740.458059, 0.022297, -0.016188, 0.003665, 0.016000, 0.064000, 0.992000, 8.308517, 2.386776, 48.830524, 0.071545, -0.022840, 0.051246

1495173740.471378, 0.018326, -0.014661, 0.000916, 0.016000, 0.064000, 0.992000, 8.326108, 2.399134, 48.826922, 0.071639, -0.022900, 0.052202

1495173740.484705, 0.018631, -0.015272, 0.001527, 0.016000, 0.048000, 0.992000, 8.340208, 2.409040, 48.824028, 0.071420, -0.022951, 0.051042

1495173740.498019, 0.019548, -0.013134, 0.002749, 0.016000, 0.016000, 0.944000, 8.351505, 2.416977, 48.821705, 0.070607, -0.022866, 0.045885

1495173740.511335, 0.020464, -0.012523, 0.001833, 0.016000, 0.016000, 0.944000, 8.353888, 2.402990, 48.821987, 0.069821, -0.022780, 0.040856

1495173740.524663, 0.018937, -0.017104, 0.003360, 0.016000, 0.080000, 0.992000, 8.355794, 2.391805, 48.822211, 0.070269, -0.022856, 0.044082

1495173740.537982, 0.020159, -0.014966, 0.004276, 0.016000, 0.080000, 0.992000, 8.306302, 2.476138, 48.826451, 0.070725, -0.022905, 0.047069

1495173740.551283, 0.021686, -0.015577, 0.002138, -0.000000, 0.064000, 1.008000, 8.266660, 2.543640, 48.829709, 0.070856, -0.022653, 0.047485

1495173740.564608, 0.020159, -0.014355, 0.003971, 0.016000, 0.064000, 0.976000, 8.234915, 2.597664, 48.832229, 0.071009, -0.022719, 0.048193

1495173740.577924, 0.020769, -0.015882, 0.003360, 0.016000, 0.064000, 0.976000, 8.245651, 2.603824, 48.830089, 0.071167, -0.022804, 0.048858

1495173740.591239, 0.020159, -0.016799, 0.002138, 0.032000, 0.048000, 0.992000, 8.254240, 2.608752, 48.828375, 0.070966, -0.023193, 0.047155

1495173740.604566, 0.021991, -0.015577, 0.001833, 0.032000, 0.048000, 1.008000, 8.275806, 2.593098, 48.825558, 0.070779, -0.023547, 0.045424

1495173740.617882, 0.022297, -0.016188, 0.004581, 0.032000, 0.064000, 1.008000, 8.293045, 2.580582, 48.823296, 0.070923, -0.023927, 0.046094

1495173740.631197, 0.017410, -0.013439, 0.000916, 0.032000, 0.064000, 1.008000, 8.306828, 2.570576, 48.821481, 0.071003, -0.024260, 0.046731

1495173740.644524, 0.018937, -0.017104, 0.001833, 0.032000, 0.064000, 1.008000, 8.328941, 2.560328, 48.818252, 0.071100, -0.024635, 0.047389

1495173740.657839, 0.018937, -0.016799, 0.003054, 0.016000, 0.064000, 1.008000, 8.346596, 2.552145, 48.815665, 0.071191, -0.024683, 0.047906

1495173740.671155, 0.016188, -0.011912, 0.002138, 0.016000, 0.048000, 1.008000, 8.359854, 2.550952, 48.813459, 0.070937, -0.024645, 0.046370

1495173740.684482, 0.019548, -0.011606, 0.003665, 0.016000, 0.048000, 1.008000, 8.370486, 2.549995, 48.811687, 0.070731, -0.024607, 0.044889

1495173740.697797, 0.016799, -0.014966, 0.002443, 0.016000, 0.064000, 0.992000, 8.379009, 2.549227, 48.810264, 0.070821, -0.024636, 0.045583

1495173740.711115, 0.021991, -0.018937, 0.005498, 0.016000, 0.064000, 0.992000, 8.419269, 2.505193, 48.805616, 0.070975, -0.024719, 0.046405

1495173740.724441, 0.019242, -0.014661, 0.004887, 0.016000, 0.064000, 0.976000, 8.451360, 2.470081, 48.801859, 0.071111, -0.024750, 0.047426

1495173740.737742, 0.016188, -0.015577, 0.000916, 0.016000, 0.064000, 0.992000, 8.419935, 2.459840, 48.807808, 0.071185, -0.024783, 0.048273

1495173740.751047, 0.019548, -0.016799, 0.003054, 0.016000, 0.064000, 0.992000, 8.394856, 2.451668, 48.812539, 0.071300, -0.024834, 0.049157

1495173740.764388, 0.018021, -0.014050, 0.001527, 0.016000, 0.064000, 1.008000, 8.374832, 2.445143, 48.816306, 0.071374, -0.024841, 0.049896

1495173740.777710, 0.021380, -0.018326, 0.004887, 0.016000, 0.064000, 0.992000, 8.389895, 2.480302, 48.811946, 0.071510, -0.024912, 0.050697

1495173740.791034, 0.021686, -0.014966, 0.003360, 0.016000, 0.064000, 0.992000, 8.401958, 2.508468, 48.808431, 0.071648, -0.024936, 0.051388

1495173740.804422, 0.021075, -0.011912, 0.002138, 0.032000, 0.064000, 0.992000, 8.383110, 2.496766, 48.812272, 0.071783, -0.025242, 0.052284

1495173740.817895, 0.021380, -0.011912, 0.003971, 0.032000, 0.064000, 0.992000, 8.367991, 2.487379, 48.815345, 0.071920, -0.025545, 0.053218

1495173740.831351, 0.018937, -0.015882, 0.003971, 0.016000, 0.048000, 1.008000, 8.355869, 2.479853, 48.817805, 0.071689, -0.025546, 0.051784

1495173740.844822, 0.021075, -0.015577, 0.005192, -0.000000, 0.064000, 0.992000, 8.332562, 2.469793, 48.822298, 0.071813, -0.025248, 0.052429

1495173740.858274, 0.021686, -0.015272, 0.003971, -0.000000, 0.064000, 0.992000, 8.313944, 2.461757, 48.825878, 0.071943, -0.024950, 0.053069

1495173740.871736, 0.018021, -0.012828, 0.002443, 0.016000, 0.048000, 1.008000, 8.341533, 2.457029, 48.821410, 0.071700, -0.024922, 0.051681

1495173740.885205, 0.017104, -0.017410, 0.006109, -0.000000, 0.064000, 0.992000, 8.363607, 2.453245, 48.817824, 0.071771, -0.024661, 0.052371

1495173740.898678, 0.015272, -0.019853, 0.003971, -0.000000, 0.064000, 0.992000, 8.381269, 2.450217, 48.814947, 0.071817, -0.024435, 0.053020

1495173740.912146, 0.019548, -0.018021, 0.004276, 0.016000, 0.080000, 0.928000, 8.352741, 2.464434, 48.819121, 0.072344, -0.024508, 0.056544

1495173740.925617, 0.021075, -0.016493, 0.004276, -0.000000, 0.048000, 0.992000, 8.329942, 2.475794, 48.822441, 0.072159, -0.024223, 0.055187

1495173740.939108, 0.023518, -0.013439, 0.003971, -0.000000, 0.048000, 0.992000, 8.347681, 2.447954, 48.820815, 0.072008, -0.023904, 0.053924

1495173740.952612, 0.020769, -0.016493, 0.003360, 0.016000, 0.064000, 0.976000, 8.361857, 2.425700, 48.819500, 0.072148, -0.023977, 0.054914

1495173740.966092, 0.022297, -0.015882, 0.004581, 0.016000, 0.064000, 0.976000, 8.373187, 2.407909, 48.818439, 0.072305, -0.024042, 0.055945

1495173740.979551, 0.021991, -0.011912, 0.003054, 0.016000, 0.064000, 0.976000, 8.356203, 2.470155, 48.818239, 0.072454, -0.024050, 0.056780

1495173740.993112, 0.024129, -0.015882, 0.004887, 0.016000, 0.080000, 0.992000, 8.342580, 2.520040, 48.818019, 0.072924, -0.024097, 0.059390

1495173741.006595, 0.018937, -0.015882, 0.004276, 0.016000, 0.080000, 0.992000, 8.324883, 2.557923, 48.819070, 0.073314, -0.024141, 0.061850

1495173741.020058, 0.020464, -0.015577, 0.006109, 0.032000, 0.048000, 0.976000, 8.310725, 2.588218, 48.819886, 0.073092, -0.024502, 0.060119

1495173741.033530, 0.013744, -0.011912, 0.003054, -0.000000, 0.048000, 0.992000, 8.299399, 2.612448, 48.820522, 0.072800, -0.024150, 0.058349

1495173741.046973, 0.018021, -0.014050, 0.003665, -0.000000, 0.048000, 0.992000, 8.308341, 2.613355, 48.818952, 0.072569, -0.023834, 0.056619

1495173741.060411, 0.022297, -0.017410, 0.006720, 0.016000, 0.064000, 1.008000, 8.315494, 2.614079, 48.817696, 0.072677, -0.023910, 0.056842

1495173741.073890, 0.018937, -0.014355, 0.006109, 0.016000, 0.064000, 1.008000, 8.357363, 2.559412, 48.813442, 0.072739, -0.023945, 0.057191

1495173741.087350, 0.021380, -0.013439, 0.003971, 0.016000, 0.048000, 1.008000, 8.390838, 2.515687, 48.809973, 0.072524, -0.023944, 0.055587

1495173741.100808, 0.020769, -0.011912, 0.003665, 0.016000, 0.048000, 1.008000, 8.417604, 2.480712, 48.807154, 0.072304, -0.023923, 0.054104

1495173741.114269, 0.019548, -0.013744, 0.001527, 0.016000, 0.048000, 1.008000, 8.399496, 2.506950, 48.808933, 0.072074, -0.023925, 0.052553

1495173741.127777, 0.021380, -0.018631, 0.003971, 0.016000, 0.080000, 0.976000, 8.385017, 2.527923, 48.810341, 0.072540, -0.024011, 0.055359

1495173741.141276, 0.022297, -0.016799, 0.001222, -0.000000, 0.080000, 1.008000, 8.345066, 2.492160, 48.819026, 0.072942, -0.023747, 0.057524

1495173741.154759, 0.023824, -0.015882, 0.002138, -0.000000, 0.080000, 1.008000, 8.313056, 2.463510, 48.825941, 0.073356, -0.023478, 0.059739

1495173741.168229, 0.017104, -0.016493, 0.002749, -0.000000, 0.064000, 0.992000, 8.287417, 2.440565, 48.831451, 0.073396, -0.023230, 0.060272

1495173741.181688, 0.024129, -0.020769, 0.004581, -0.000000, 0.064000, 0.992000, 8.256653, 2.437551, 48.836813, 0.073528, -0.023046, 0.060828

1495173741.195155, 0.021075, -0.017104, 0.004581, 0.032000, 0.048000, 0.976000, 8.232077, 2.435143, 48.841082, 0.073312, -0.023453, 0.059553

1495173741.208616, 0.021075, -0.016799, 0.002138, -0.000000, 0.048000, 0.960000, 8.240150, 2.454347, 48.838759, 0.073137, -0.023193, 0.058350

1495173741.222073, 0.023213, -0.015882, 0.006720, -0.000000, 0.048000, 0.960000, 8.246614, 2.469725, 48.836893, 0.072992, -0.022931, 0.057193

1495173741.235526, 0.020159, -0.015882, 0.003360, 0.016000, 0.064000, 1.008000, 8.251790, 2.482039, 48.835394, 0.073064, -0.023003, 0.057727

1495173741.248981, 0.018631, -0.016493, 0.007330, 0.016000, 0.064000, 0.992000, 8.234255, 2.545999, 48.835061, 0.073133, -0.023091, 0.058270

1495173741.262437, 0.024129, -0.015577, 0.003971, 0.016000, 0.064000, 0.992000, 8.220218, 2.597155, 48.834732, 0.073275, -0.023161, 0.058627

1495173741.275898, 0.016799, -0.013134, 0.004581, 0.032000, 0.080000, 0.976000, 8.227635, 2.546335, 48.836159, 0.073680, -0.023516, 0.061815

1495173741.289348, 0.021075, -0.019242, 0.006109, 0.016000, 0.064000, 1.024000, 8.233562, 2.505679, 48.837263, 0.073730, -0.023617, 0.062100

1495173741.302866, 0.024129, -0.014966, 0.003054, 0.016000, 0.064000, 1.024000, 8.238298, 2.473155, 48.838122, 0.073822, -0.023659, 0.062428

1495173741.316353, 0.020769, -0.016493, 0.004276, 0.032000, 0.016000, 0.976000, 8.316227, 2.520810, 48.822476, 0.072928, -0.023885, 0.056198

1495173741.329811, 0.023824, -0.017410, 0.004887, 0.032000, 0.016000, 0.976000, 8.378556, 2.558932, 48.809834, 0.072093, -0.024122, 0.050039

1495173741.343329, 0.019242, -0.015272, 0.004581, 0.016000, 0.064000, 0.992000, 8.368418, 2.551196, 48.811978, 0.072191, -0.024170, 0.050656

1495173741.356791, 0.019853, -0.011301, 0.002138, -0.000000, 0.048000, 1.008000, 8.360315, 2.545013, 48.813690, 0.071979, -0.023818, 0.049139

1495173741.370242, 0.023213, -0.014966, 0.004581, -0.000000, 0.048000, 1.008000, 8.353837, 2.540070, 48.815056, 0.071814, -0.023525, 0.047692

1495173741.383708, 0.016493, -0.015577, -0.001222, 0.016000, 0.064000, 0.992000, 8.316562, 2.519164, 48.822504, 0.071882, -0.023583, 0.048376

1495173741.397158, 0.019548, -0.016799, 0.003971, -0.000000, 0.064000, 1.008000, 8.286722, 2.502430, 48.828438, 0.071964, -0.023338, 0.048884

1495173741.410605, 0.018326, -0.014050, 0.001833, -0.000000, 0.064000, 1.008000, 8.274556, 2.413682, 48.834968, 0.072026, -0.023061, 0.049573

1495173741.424065, 0.024740, -0.017715, 0.004276, 0.016000, 0.064000, 0.976000, 8.264814, 2.342758, 48.840072, 0.072216, -0.023168, 0.050910

1495173741.437514, 0.024129, -0.018326, 0.003971, 0.016000, 0.064000, 0.976000, 8.257015, 2.286068, 48.844077, 0.072394, -0.023282, 0.052369

1495173741.450965, 0.018326, -0.015272, 0.004581, 0.016000, 0.064000, 1.008000, 8.231014, 2.355478, 48.845168, 0.072451, -0.023342, 0.053358

1495173741.464430, 0.017104, -0.016799, 0.006414, 0.032000, 0.048000, 1.008000, 8.210135, 2.411175, 48.845964, 0.072173, -0.023720, 0.052102

1495173741.477878, 0.018631, -0.013744, 0.003360, 0.032000, 0.048000, 1.008000, 8.223199, 2.361834, 48.846177, 0.071922, -0.024050, 0.050982

1495173741.491434, 0.018937, -0.010079, 0.003971, -0.000000, 0.064000, 0.992000, 8.233648, 2.322341, 48.846310, 0.072011, -0.023710, 0.052010

1495173741.504965, 0.018326, -0.013439, 0.003665, 0.016000, 0.064000, 1.008000, 8.242006, 2.290733, 48.846393, 0.072076, -0.023739, 0.053165

1495173741.518449, 0.018937, -0.014355, 0.001527, 0.016000, 0.064000, 1.008000, 8.269961, 2.389719, 48.836925, 0.072150, -0.023775, 0.053997

1495173741.531925, 0.017104, -0.014966, 0.002443, 0.016000, 0.064000, 1.008000, 8.292229, 2.468653, 48.829222, 0.072198, -0.023818, 0.054609

1495173741.545363, 0.019242, -0.011301, 0.004581, 0.016000, 0.064000, 1.008000, 8.348395, 2.501032, 48.818003, 0.072272, -0.023814, 0.055141

1495173741.558797, 0.014355, -0.016799, 0.002138, 0.032000, 0.064000, 0.992000, 8.393422, 2.526992, 48.808944, 0.072307, -0.024206, 0.055866

1495173741.572262, 0.015882, -0.016188, 0.005192, 0.016000, 0.064000, 1.024000, 8.429503, 2.547797, 48.801644, 0.072317, -0.024253, 0.056108

1495173741.585715, 0.014355, -0.016188, 0.003360, 0.016000, 0.064000, 1.024000, 8.341445, 2.507275, 48.818871, 0.072306, -0.024298, 0.056446

1495173741.599169, 0.021686, -0.012523, 0.001222, 0.032000, 0.064000, 0.976000, 8.270991, 2.474857, 48.832510, 0.072460, -0.024635, 0.057488

1495173741.612626, 0.018631, -0.014966, 0.003360, -0.000000, 0.048000, 0.992000, 8.218565, 2.376516, 48.846245, 0.072237, -0.024329, 0.056343

1495173741.626077, 0.020159, -0.013744, 0.004581, -0.000000, 0.048000, 0.992000, 8.212345, 2.297497, 48.851071, 0.072035, -0.024016, 0.055430

1495173741.639522, 0.021075, -0.017715, 0.004887, 0.016000, 0.064000, 1.008000, 8.207352, 2.234256, 48.854844, 0.072134, -0.024095, 0.056689

1495173741.652986, 0.020159, -0.011301, 0.002749, 0.032000, 0.064000, 0.976000, 8.216922, 2.311118, 48.849659, 0.072273, -0.024424, 0.058256

1495173741.666440, 0.019242, -0.011606, 0.003054, 0.032000, 0.064000, 0.976000, 8.224558, 2.372552, 48.845429, 0.072395, -0.024749, 0.059609

1495173741.679889, 0.018021, -0.010690, 0.003054, 0.016000, 0.064000, 0.992000, 8.230652, 2.421663, 48.841992, 0.072470, -0.024723, 0.060398

1495173741.693355, 0.018631, -0.015272, 0.002443, 0.016000, 0.064000, 0.992000, 8.235520, 2.460929, 48.839209, 0.072551, -0.024756, 0.061052

1495173741.706802, 0.019548, -0.018937, 0.003665, 0.032000, 0.080000, 0.992000, 8.239409, 2.492327, 48.836961, 0.072977, -0.025145, 0.064121

1495173741.720261, 0.019242, -0.019548, 0.004276, 0.016000, 0.048000, 0.976000, 8.282052, 2.463162, 48.831227, 0.072760, -0.025214, 0.062714

1495173741.733703, 0.024435, -0.013134, 0.004276, 0.016000, 0.048000, 0.976000, 8.316171, 2.439820, 48.826600, 0.072614, -0.025198, 0.061403

1495173741.747124, 0.021075, -0.014355, 0.003971, 0.016000, 0.064000, 0.992000, 8.343469, 2.421140, 48.822872, 0.072724, -0.025210, 0.062133

1495173741.760743, 0.021991, -0.012523, 0.002443, 0.016000, 0.048000, 1.008000, 8.365309, 2.406193, 48.819874, 0.072521, -0.025174, 0.060698

1495173741.774210, 0.018021, -0.014355, 0.001833, 0.016000, 0.048000, 1.008000, 8.382783, 2.394232, 48.817465, 0.072266, -0.025162, 0.059314

1495173741.787664, 0.017410, -0.015882, 0.002443, 0.032000, 0.048000, 0.992000, 8.368541, 2.400224, 48.819614, 0.072013, -0.025498, 0.058032

1495173741.801089, 0.018631, -0.015882, 0.000916, 0.032000, 0.048000, 0.992000, 8.357169, 2.405007, 48.821327, 0.071781, -0.025827, 0.056741

1495173741.814562, 0.023518, -0.015882, 0.006414, -0.000000, 0.064000, 0.992000, 8.348087, 2.408828, 48.822692, 0.071935, -0.025528, 0.057445

1495173741.828020, 0.019548, -0.014355, 0.003360, 0.016000, 0.064000, 0.992000, 8.384105, 2.303764, 48.821591, 0.072036, -0.025535, 0.058541

1495173741.841469, 0.023824, -0.013134, 0.003665, 0.016000, 0.064000, 0.992000, 8.412901, 2.219671, 48.820533, 0.072191, -0.025527, 0.059829

1495173741.854985, 0.021991, -0.017104, 0.000611, 0.016000, 0.064000, 0.976000, 8.403030, 2.245100, 48.821070, 0.072343, -0.025575, 0.061122

1495173741.868438, 0.018021, -0.014966, -0.001222, -0.000000, 0.064000, 1.008000, 8.395123, 2.265463, 48.821490, 0.072393, -0.025263, 0.061849

1495173741.881896, 0.015272, -0.015272, -0.000611, -0.000000, 0.064000, 1.008000, 8.388790, 2.281768, 48.821819, 0.072406, -0.024961, 0.062532

1495173741.895351, 0.022602, -0.014661, 0.002749, 0.016000, 0.080000, 0.976000, 8.384146, 2.239815, 48.824559, 0.072877, -0.024970, 0.065854

1495173741.908853, 0.019548, -0.013134, 0.001222, 0.016000, 0.080000, 0.976000, 8.380425, 2.206230, 48.826727, 0.073299, -0.024958, 0.069177

1495173741.922345, 0.016188, -0.014661, 0.000611, -0.000000, 0.048000, 0.992000, 8.337923, 2.233756, 48.832752, 0.073027, -0.024640, 0.068103

1495173741.935828, 0.018021, -0.017104, 0.003360, 0.016000, 0.048000, 1.008000, 8.303923, 2.255772, 48.837533, 0.072761, -0.024678, 0.066956

1495173741.949287, 0.020769, -0.014661, 0.004581, 0.016000, 0.048000, 1.008000, 8.276723, 2.273380, 48.841334, 0.072536, -0.024684, 0.065805

1495173741.962750, 0.014050, -0.013744, 0.002749, -0.000000, 0.048000, 1.008000, 8.336852, 2.358145, 48.827086, 0.072239, -0.024356, 0.064438

1495173741.976209, 0.015272, -0.015577, 0.001833, 0.016000, 0.080000, 0.992000, 8.384819, 2.425796, 48.815557, 0.072593, -0.024387, 0.067072

1495173741.989666, 0.018326, -0.015272, 0.003054, 0.016000, 0.080000, 0.992000, 8.398059, 2.446550, 48.812245, 0.072981, -0.024416, 0.069609

1495173742.003224, 0.017715, -0.015272, 0.002443, -0.000000, 0.048000, 0.992000, 8.408659, 2.463170, 48.809584, 0.072743, -0.024113, 0.067999

1495173742.016689, 0.016188, -0.015272, 0.001833, 0.032000, 0.080000, 0.976000, 8.417146, 2.476477, 48.807448, 0.073150, -0.024473, 0.071034

1495173742.030145, 0.020159, -0.013439, 0.005498, 0.032000, 0.080000, 0.976000, 8.431796, 2.447353, 48.806388, 0.073598, -0.024806, 0.074129

1495173742.043585, 0.013744, -0.015577, 0.001222, 0.016000, 0.064000, 1.008000, 8.443493, 2.424092, 48.805527, 0.073574, -0.024834, 0.074400

1495173742.057011, 0.016799, -0.015272, 0.001833, 0.016000, 0.064000, 1.008000, 8.445329, 2.408590, 48.805977, 0.073590, -0.024858, 0.074713

1495173742.070464, 0.018631, -0.012217, 0.002749, 0.032000, 0.064000, 1.024000, 8.446799, 2.396172, 48.806334, 0.073613, -0.025150, 0.075125

1495173742.083920, 0.015882, -0.016188, -0.000916, 0.016000, 0.048000, 1.008000, 8.447975, 2.386229, 48.806617, 0.073311, -0.025155, 0.073435

1495173742.097369, 0.014966, -0.015882, 0.001527, 0.016000, 0.048000, 1.008000, 8.467038, 2.341474, 48.805482, 0.073001, -0.025160, 0.071928

1495173742.110816, 0.019242, -0.017104, 0.002138, 0.016000, 0.048000, 0.992000, 8.482291, 2.305648, 48.804539, 0.072767, -0.025190, 0.070648

1495173742.124278, 0.018631, -0.013744, 0.001222, 0.016000, 0.064000, 0.992000, 8.454961, 2.331316, 48.808061, 0.072842, -0.025193, 0.071359

1495173742.137725, 0.018937, -0.015577, 0.003665, 0.016000, 0.064000, 0.992000, 8.433098, 2.351845, 48.810859, 0.072920, -0.025222, 0.072040

1495173742.151173, 0.021686, -0.016799, 0.005803, 0.032000, 0.048000, 1.008000, 8.415609, 2.368264, 48.813083, 0.072693, -0.025558, 0.070530

1495173742.164628, 0.021991, -0.015577, 0.003360, 0.032000, 0.048000, 1.008000, 8.401165, 2.436349, 48.812221, 0.072475, -0.025867, 0.068821

1495173742.178078, 0.018326, -0.012828, 0.003054, 0.032000, 0.064000, 1.008000, 8.389601, 2.490801, 48.811461, 0.072536, -0.026157, 0.069243

1495173742.191527, 0.018021, -0.018937, 0.003054, 0.016000, 0.048000, 0.992000, 8.405470, 2.481283, 48.809216, 0.072298, -0.026187, 0.067569

1495173742.204988, 0.019242, -0.014355, 0.001833, 0.016000, 0.048000, 0.992000, 8.418180, 2.473658, 48.807413, 0.072081, -0.026157, 0.065937

1495173742.218435, 0.023824, -0.016188, 0.001833, 0.016000, 0.064000, 1.008000, 8.428359, 2.467552, 48.805965, 0.072220, -0.026167, 0.066271

1495173742.231886, 0.020769, -0.016188, 0.001833, 0.016000, 0.064000, 0.992000, 8.404957, 2.458813, 48.810442, 0.072335, -0.026182, 0.066758

1495173742.245340, 0.017715, -0.012217, 0.002138, 0.016000, 0.064000, 0.992000, 8.386273, 2.451836, 48.814006, 0.072407, -0.026145, 0.067267

1495173742.258790, 0.020769, -0.015882, 0.005803, 0.016000, 0.064000, 1.008000, 8.392869, 2.410503, 48.814931, 0.072497, -0.026155, 0.067784

1495173742.272240, 0.023824, -0.014050, 0.003665, 0.016000, 0.064000, 1.008000, 8.398137, 2.377459, 48.815646, 0.072626, -0.026140, 0.068348

1495173742.285693, 0.020769, -0.016188, 0.002443, 0.016000, 0.064000, 0.992000, 8.402347, 2.351037, 48.816201, 0.072732, -0.026157, 0.069084

1495173742.299124, 0.018937, -0.013134, 0.003360, -0.000000, 0.064000, 0.976000, 8.358498, 2.405465, 48.821076, 0.072828, -0.025811, 0.069631

1495173742.312559, 0.022907, -0.015577, 0.004276, -0.000000, 0.064000, 0.976000, 8.323362, 2.449062, 48.824912, 0.072977, -0.025505, 0.070081

1495173742.326020, 0.021686, -0.015577, 0.004887, 0.016000, 0.080000, 0.992000, 8.324286, 2.463342, 48.824036, 0.073400, -0.025518, 0.072578

1495173742.339468, 0.019853, -0.016188, 0.000916, 0.016000, 0.048000, 0.992000, 8.325025, 2.474757, 48.823333, 0.073169, -0.025522, 0.070828

1495173742.352933, 0.024435, -0.012217, 0.002443, 0.016000, 0.048000, 0.992000, 8.325614, 2.483883, 48.822769, 0.073003, -0.025476, 0.069112

1495173742.366396, 0.019853, -0.017104, 0.001527, 0.016000, 0.080000, 0.992000, 8.308427, 2.473045, 48.826247, 0.073402, -0.025506, 0.071567

1495173742.379848, 0.020769, -0.014355, 0.002138, -0.000000, 0.048000, 1.024000, 8.294681, 2.464377, 48.829022, 0.073168, -0.025162, 0.069733

1495173742.393347, 0.022297, -0.014355, 0.004887, -0.000000, 0.048000, 1.024000, 8.347120, 2.478287, 48.819381, 0.072959, -0.024829, 0.067941

1495173742.406801, 0.019853, -0.014661, 0.003360, 0.016000, 0.080000, 0.992000, 8.389132, 2.489430, 48.811612, 0.073359, -0.024842, 0.070361

1495173742.420253, 0.018326, -0.012828, 0.002443, 0.016000, 0.080000, 0.992000, 8.422782, 2.498356, 48.805361, 0.073732, -0.024830, 0.072683

1495173742.433709, 0.023518, -0.013744, 0.003054, 0.032000, 0.080000, 1.040000, 8.413876, 2.524157, 48.805569, 0.074108, -0.025128, 0.074769

1495173742.447166, 0.021380, -0.014050, 0.003054, 0.016000, 0.048000, 0.992000, 8.406742, 2.544818, 48.805726, 0.073884, -0.025110, 0.072822

1495173742.460617, 0.019853, -0.013744, 0.003665, 0.016000, 0.048000, 0.992000, 8.411880, 2.577450, 48.803128, 0.073643, -0.025089, 0.070836

1495173742.474071, 0.018326, -0.015882, 0.003971, 0.016000, 0.064000, 1.008000, 8.415984, 2.603530, 48.801036, 0.073680, -0.025116, 0.070749

1495173742.487526, 0.019853, -0.012828, 0.003971, 0.016000, 0.048000, 0.992000, 8.419264, 2.624378, 48.799354, 0.073444, -0.025082, 0.068687

1495173742.500975, 0.016493, -0.011606, 0.003054, 0.016000, 0.048000, 0.992000, 8.358187, 2.638324, 48.809100, 0.073169, -0.025033, 0.066615

1495173742.514428, 0.017715, -0.012217, 0.002443, -0.000000, 0.048000, 0.992000, 8.309431, 2.649452, 48.816821, 0.072930, -0.024671, 0.064618

1495173742.527889, 0.020769, -0.012217, 0.003360, -0.000000, 0.048000, 0.992000, 8.295501, 2.605506, 48.821555, 0.072735, -0.024319, 0.062778

1495173742.541336, 0.019242, -0.014966, 0.003971, 0.032000, 0.064000, 0.992000, 8.284353, 2.570348, 48.825312, 0.072823, -0.024678, 0.063281

1495173742.554778, 0.018326, -0.014355, 0.007025, 0.016000, 0.064000, 1.008000, 8.275431, 2.542223, 48.828297, 0.072874, -0.024698, 0.063577

1495173742.568237, 0.023213, -0.012828, 0.003665, 0.016000, 0.064000, 1.008000, 8.324926, 2.538559, 48.820074, 0.072989, -0.024694, 0.063823

1495173742.581685, 0.019242, -0.016188, 0.002749, 0.016000, 0.064000, 0.992000, 8.364529, 2.535626, 48.813456, 0.073069, -0.024739, 0.064180

1495173742.595140, 0.020769, -0.014355, 0.004887, 0.016000, 0.064000, 0.992000, 8.335710, 2.568244, 48.816681, 0.073168, -0.024761, 0.064482

1495173742.608605, 0.021075, -0.018021, 0.001527, 0.016000, 0.064000, 0.992000, 8.312672, 2.594311, 48.819231, 0.073270, -0.024827, 0.064666

1495173742.622062, 0.016493, -0.017715, 0.003054, 0.016000, 0.048000, 0.992000, 8.294253, 2.615148, 48.821252, 0.072998, -0.024864, 0.062725

1495173742.635512, 0.017410, -0.012523, 0.005498, 0.016000, 0.048000, 0.992000, 8.325371, 2.616412, 48.815887, 0.072742, -0.024836, 0.060859

1495173742.648966, 0.016188, -0.016188, -0.000305, -0.000000, 0.064000, 0.976000, 8.350301, 2.617424, 48.811575, 0.072808, -0.024552, 0.061016

1495173742.662509, 0.013744, -0.014966, 0.002749, 0.032000, 0.080000, 0.976000, 8.331887, 2.544333, 48.818586, 0.073181, -0.024902, 0.064068

1495173742.675964, 0.016799, -0.013134, 0.002138, 0.032000, 0.080000, 0.976000, 8.317133, 2.485822, 48.824116, 0.073585, -0.025219, 0.067228

1495173742.689449, 0.019548, -0.016799, 0.005498, -0.000000, 0.048000, 0.976000, 8.305315, 2.438989, 48.828489, 0.073371, -0.024924, 0.065855

1495173742.702917, 0.015882, -0.017715, 0.004276, 0.016000, 0.064000, 1.008000, 8.310157, 2.418683, 48.828675, 0.073379, -0.024982, 0.066378

1495173742.716377, 0.016799, -0.013134, 0.002443, 0.016000, 0.064000, 1.008000, 8.314026, 2.402447, 48.828818, 0.073398, -0.024977, 0.066913

1495173742.729834, 0.016188, -0.011912, 0.003665, 0.016000, 0.064000, 0.992000, 8.326963, 2.429006, 48.825300, 0.073429, -0.024962, 0.067516

1495173742.743335, 0.023824, -0.015272, 0.004581, 0.016000, 0.064000, 0.992000, 8.337329, 2.450291, 48.822467, 0.073561, -0.024993, 0.068056

1495173742.756784, 0.020159, -0.016493, 0.005498, 0.016000, 0.064000, 0.992000, 8.345632, 2.467342, 48.820190, 0.073640, -0.025039, 0.068549

1495173742.770243, 0.016188, -0.014966, 0.001527, 0.016000, 0.064000, 1.008000, 8.334415, 2.481153, 48.821406, 0.073648, -0.025055, 0.068814

1495173742.783713, 0.020464, -0.010690, 0.003665, 0.016000, 0.064000, 1.008000, 8.325431, 2.492213, 48.822375, 0.073711, -0.025016, 0.069079

1495173742.797147, 0.018326, -0.015272, -0.001222, -0.000000, 0.064000, 0.992000, 8.319012, 2.514149, 48.822345, 0.073766, -0.024716, 0.069192

1495173742.810575, 0.017410, -0.014050, 0.002443, -0.000000, 0.064000, 0.976000, 8.313892, 2.531642, 48.822313, 0.073826, -0.024409, 0.069433

1495173742.824057, 0.021075, -0.013134, 0.003360, -0.000000, 0.064000, 0.976000, 8.309806, 2.545601, 48.822283, 0.073934, -0.024099, 0.069649

1495173742.837512, 0.019242, -0.014050, 0.001527, 0.048000, 0.096000, 0.992000, 8.341547, 2.525188, 48.817930, 0.074702, -0.024701, 0.075281

1495173742.850965, 0.015577, -0.018326, 0.000305, 0.016000, 0.048000, 1.008000, 8.366986, 2.508824, 48.814420, 0.074374, -0.024739, 0.073279

1495173742.864431, 0.014355, -0.014966, 0.000916, 0.016000, 0.048000, 1.008000, 8.355078, 2.497039, 48.817064, 0.074037, -0.024734, 0.071358

1495173742.877881, 0.018631, -0.012217, 0.001833, 0.016000, 0.064000, 0.992000, 8.345530, 2.487590, 48.819180, 0.074089, -0.024725, 0.071688

1495173742.891329, 0.016188, -0.016799, 0.004581, 0.016000, 0.064000, 0.992000, 8.337877, 2.480017, 48.820873, 0.074106, -0.024779, 0.072064

1495173742.904796, 0.017104, -0.016188, 0.005192, 0.016000, 0.064000, 0.976000, 8.329409, 2.449419, 48.823863, 0.074156, -0.024831, 0.072664

1495173742.918256, 0.016493, -0.014966, 0.004581, 0.016000, 0.048000, 1.008000, 8.322656, 2.425020, 48.826232, 0.073849, -0.024831, 0.070994

1495173742.931771, 0.021686, -0.013439, 0.002749, 0.016000, 0.048000, 1.008000, 8.305592, 2.480871, 48.826332, 0.073619, -0.024808, 0.069186

1495173742.945240, 0.017104, -0.016799, 0.001527, 0.016000, 0.048000, 0.992000, 8.291942, 2.525519, 48.826363, 0.073347, -0.024834, 0.067374

1495173742.958694, 0.013744, -0.014050, 0.001527, 0.016000, 0.048000, 0.992000, 8.281023, 2.561216, 48.826357, 0.073037, -0.024822, 0.065506

1495173742.972151, 0.016188, -0.012523, 0.003665, 0.016000, 0.048000, 0.992000, 8.272605, 2.553190, 48.828204, 0.072764, -0.024794, 0.063726

1495173742.985725, 0.015882, -0.015272, 0.001833, 0.016000, 0.064000, 0.992000, 8.265872, 2.546771, 48.829679, 0.072807, -0.024826, 0.064069

1495173742.999257, 0.015882, -0.015272, 0.003054, 0.016000, 0.064000, 0.992000, 8.242825, 2.523510, 48.834783, 0.072847, -0.024858, 0.064489

1495173743.012739, 0.015882, -0.014661, 0.000611, -0.000000, 0.064000, 1.008000, 8.224386, 2.504901, 48.838849, 0.072867, -0.024556, 0.064639

1495173743.026199, 0.019548, -0.015882, 0.003665, 0.016000, 0.064000, 0.976000, 8.209634, 2.490013, 48.842093, 0.072973, -0.024606, 0.065294

1495173743.039666, 0.018326, -0.013134, 0.006109, 0.016000, 0.064000, 0.976000, 8.233011, 2.532644, 48.835965, 0.073062, -0.024622, 0.065850

1495173743.053182, 0.024435, -0.019242, 0.004581, 0.016000, 0.064000, 0.992000, 8.251700, 2.566736, 48.831031, 0.073211, -0.024711, 0.066133

1495173743.066636, 0.017410, -0.017104, 0.003054, 0.032000, 0.048000, 0.960000, 8.277194, 2.542272, 48.827996, 0.072968, -0.025092, 0.064529

1495173743.080089, 0.016493, -0.016188, 0.001222, 0.032000, 0.048000, 0.960000, 8.297628, 2.522660, 48.825545, 0.072720, -0.025452, 0.062994

1495173743.093555, 0.022297, -0.015882, 0.004887, 0.016000, 0.064000, 0.992000, 8.314000, 2.506943, 48.823569, 0.072845, -0.025480, 0.063485

1495173743.107005, 0.020769, -0.013744, 0.004581, 0.032000, 0.064000, 0.960000, 8.309405, 2.476166, 48.825922, 0.072996, -0.025824, 0.064578

1495173743.120455, 0.016493, -0.013744, 0.001833, 0.032000, 0.064000, 0.960000, 8.305722, 2.451513, 48.827793, 0.073088, -0.026159, 0.065687

1495173743.133918, 0.014661, -0.018937, 0.001833, -0.000000, 0.048000, 0.992000, 8.274614, 2.447292, 48.833286, 0.072807, -0.025868, 0.064182

1495173743.147364, 0.019548, -0.016799, 0.000916, -0.000000, 0.048000, 0.992000, 8.249759, 2.443920, 48.837660, 0.072594, -0.025555, 0.062705

1495173743.160807, 0.014050, -0.017410, 0.001833, 0.016000, 0.048000, 0.976000, 8.229894, 2.441224, 48.841146, 0.072316, -0.025586, 0.061355

1495173743.174268, 0.012217, -0.017715, -0.000000, 0.016000, 0.080000, 1.008000, 8.324123, 2.475785, 48.823434, 0.072604, -0.025616, 0.063764

1495173743.187715, 0.017104, -0.014050, 0.002749, 0.016000, 0.080000, 1.008000, 8.399428, 2.503406, 48.809126, 0.072949, -0.025601, 0.066056

1495173743.201164, 0.018631, -0.014050, 0.003971, 0.032000, 0.064000, 1.008000, 8.388679, 2.489509, 48.811686, 0.073004, -0.025913, 0.066548

1495173743.214627, 0.015882, -0.011301, 0.002138, 0.016000, 0.064000, 0.976000, 8.380078, 2.478391, 48.813729, 0.073060, -0.025874, 0.067131

1495173743.228073, 0.023824, -0.016493, 0.006720, 0.016000, 0.064000, 0.976000, 8.373196, 2.469495, 48.815361, 0.073218, -0.025910, 0.067784

1495173743.244152, 0.018631, -0.013439, 0.003360, 0.016000, 0.064000, 0.992000, 8.370937, 2.481696, 48.815129, 0.073333, -0.025930, 0.068219

1495173743.257585, 0.020464, -0.011912, 0.002749, 0.032000, 0.064000, 0.992000, 8.369128, 2.491463, 48.814942, 0.073425, -0.026217, 0.068806

1495173743.271000, 0.017715, -0.012217, 0.002138, 0.032000, 0.064000, 0.992000, 8.364122, 2.516584, 48.814512, 0.073479, -0.026500, 0.069300

1495173743.284472, 0.019242, -0.011606, 0.001833, 0.016000, 0.048000, 0.976000, 8.360116, 2.536674, 48.814158, 0.073255, -0.026431, 0.067570

1495173743.297907, 0.018021, -0.013744, 0.002443, 0.016000, 0.048000, 0.976000, 8.356912, 2.552741, 48.813869, 0.073019, -0.026392, 0.065838

1495173743.311337, 0.018021, -0.016493, 0.003665, 0.032000, 0.032000, 0.960000, 8.354666, 2.528971, 48.815491, 0.072451, -0.026672, 0.061886

1495173743.324805, 0.015882, -0.015882, 0.002138, 0.016000, 0.064000, 1.008000, 8.352867, 2.509957, 48.816780, 0.072477, -0.026668, 0.062212

1495173743.338260, 0.015882, -0.014355, 0.004581, 0.016000, 0.064000, 1.008000, 8.351428, 2.494745, 48.817806, 0.072502, -0.026646, 0.062605

1495173743.351773, 0.013744, -0.016493, 0.002138, 0.016000, 0.048000, 0.976000, 8.350275, 2.482577, 48.818623, 0.072224, -0.026644, 0.061152

1495173743.365246, 0.013744, -0.012523, 0.001527, 0.016000, 0.064000, 1.008000, 8.349353, 2.472843, 48.819275, 0.072227, -0.026596, 0.061586

1495173743.378700, 0.014661, -0.013439, 0.001833, 0.016000, 0.064000, 1.008000, 8.355407, 2.467061, 48.818532, 0.072241, -0.026562, 0.062028

1495173743.392149, 0.016188, -0.011912, 0.004581, 0.016000, 0.048000, 0.992000, 8.360257, 2.462428, 48.817935, 0.071984, -0.026496, 0.060574

1495173743.405606, 0.016799, -0.013744, 0.003665, 0.016000, 0.048000, 0.992000, 8.368374, 2.454567, 48.816941, 0.071739, -0.026455, 0.059157

1495173743.419052, 0.018326, -0.016493, 0.005192, 0.032000, 0.064000, 1.024000, 8.374854, 2.448291, 48.816144, 0.071794, -0.026774, 0.059778

1495173743.432506, 0.018937, -0.016188, 0.003360, 0.016000, 0.064000, 0.960000, 8.380029, 2.443278, 48.815508, 0.071934, -0.026790, 0.060743

1495173743.445964, 0.014050, -0.015577, 0.002138, 0.016000, 0.064000, 0.960000, 8.359740, 2.419185, 48.820186, 0.072006, -0.026796, 0.061743

1495173743.459416, 0.013439, -0.016799, 0.003360, -0.000000, 0.080000, 1.008000, 8.343546, 2.399957, 48.823905, 0.072297, -0.026477, 0.064024

1495173743.472917, 0.016493, -0.014966, 0.003665, 0.016000, 0.064000, 0.944000, 8.290474, 2.425434, 48.831686, 0.072417, -0.026489, 0.065134

1495173743.486408, 0.016493, -0.014661, 0.002749, 0.016000, 0.064000, 0.944000, 8.247939, 2.445847, 48.837871, 0.072535, -0.026496, 0.066170

1495173743.499869, 0.021380, -0.014966, 0.002138, 0.016000, 0.064000, 0.992000, 8.213859, 2.462198, 48.842792, 0.072652, -0.026489, 0.066708

1495173743.513333, 0.019548, -0.013134, 0.002749, 0.032000, 0.032000, 0.976000, 8.254812, 2.437119, 48.837146, 0.072103, -0.026715, 0.062896

1495173743.526795, 0.020159, -0.011912, 0.002443, 0.032000, 0.032000, 0.976000, 8.287559, 2.417060, 48.832596, 0.071573, -0.026923, 0.059228

1495173743.540245, 0.017104, -0.011606, 0.001833, -0.000000, 0.064000, 0.976000, 8.302683, 2.403114, 48.830715, 0.071666, -0.026541, 0.059973

1495173743.553699, 0.016493, -0.016493, 0.002138, -0.000000, 0.064000, 0.976000, 8.314798, 2.391940, 48.829202, 0.071750, -0.026231, 0.060726

1495173743.567159, 0.015272, -0.014050, 0.002443, 0.032000, 0.048000, 0.992000, 8.324501, 2.382992, 48.827987, 0.071480, -0.026523, 0.059469

1495173743.580608, 0.018326, -0.011301, 0.001833, -0.000000, 0.048000, 0.976000, 8.367796, 2.393851, 48.820055, 0.071289, -0.026130, 0.058316

1495173743.594059, 0.018326, -0.014355, 0.002138, -0.000000, 0.048000, 0.976000, 8.402443, 2.402541, 48.813677, 0.071103, -0.025786, 0.057165

1495173743.607514, 0.014966, -0.017104, 0.002138, -0.000000, 0.064000, 1.008000, 8.387823, 2.389524, 48.816830, 0.071139, -0.025499, 0.057721

1495173743.620961, 0.014966, -0.011606, 0.004276, 0.016000, 0.064000, 0.992000, 8.376137, 2.379120, 48.819344, 0.071197, -0.025470, 0.058633

1495173743.634419, 0.017104, -0.014661, 0.004276, 0.016000, 0.064000, 0.992000, 8.366794, 2.370802, 48.821351, 0.071282, -0.025483, 0.059547

1495173743.647875, 0.014966, -0.015577, 0.005803, 0.016000, 0.064000, 0.992000, 8.341213, 2.400895, 48.824258, 0.071337, -0.025508, 0.060391

1495173743.661326, 0.015272, -0.014050, 0.003054, 0.016000, 0.064000, 0.992000, 8.320753, 2.424958, 48.826559, 0.071396, -0.025510, 0.061127

1495173743.674780, 0.016493, -0.015577, 0.002749, -0.000000, 0.064000, 0.992000, 8.340160, 2.425611, 48.823216, 0.071467, -0.025209, 0.061656

1495173743.688233, 0.019853, -0.014355, 0.005803, 0.016000, 0.048000, 0.992000, 8.355677, 2.426133, 48.820537, 0.071271, -0.025205, 0.060319

1495173743.701680, 0.018326, -0.018631, 0.003360, 0.016000, 0.048000, 0.992000, 8.368086, 2.426549, 48.818391, 0.071060, -0.025256, 0.058972

1495173743.715133, 0.017104, -0.017104, 0.000611, 0.016000, 0.032000, 0.960000, 8.353587, 2.406801, 48.821851, 0.070546, -0.025250, 0.055729

1495173743.728591, 0.011301, -0.016799, 0.000305, 0.016000, 0.048000, 1.008000, 8.342004, 2.391025, 48.824607, 0.070243, -0.025268, 0.054430

1495173743.742025, 0.017715, -0.015577, 0.004887, 0.016000, 0.048000, 1.008000, 8.314835, 2.396813, 48.828957, 0.070028, -0.025275, 0.053204

1495173743.755481, 0.017410, -0.015272, 0.002749, 0.016000, 0.064000, 1.008000, 8.293117, 2.401439, 48.832423, 0.070121, -0.025292, 0.054013

1495173743.768946, 0.021380, -0.014050, 0.001833, 0.016000, 0.064000, 1.008000, 8.275755, 2.405136, 48.835187, 0.070265, -0.025293, 0.054790

1495173743.782402, 0.020769, -0.018631, -0.001222, 0.016000, 0.064000, 0.992000, 8.262019, 2.389865, 48.838262, 0.070418, -0.025355, 0.055686

1495173743.795844, 0.019548, -0.013744, 0.000611, 0.016000, 0.080000, 0.992000, 8.251034, 2.377653, 48.840715, 0.070863, -0.025337, 0.058678

1495173743.809279, 0.017410, -0.014966, 0.002749, 0.016000, 0.080000, 0.992000, 8.269741, 2.407102, 48.836109, 0.071270, -0.025338, 0.061550

1495173743.822753, 0.013744, -0.013439, 0.004581, 0.016000, 0.064000, 0.976000, 8.284730, 2.430701, 48.832399, 0.071331, -0.025342, 0.062417

1495173743.836216, 0.017715, -0.015577, 0.004887, 0.016000, 0.032000, 0.992000, 8.296736, 2.449606, 48.829416, 0.070800, -0.025299, 0.058904

1495173743.849670, 0.019242, -0.012523, 0.003971, 0.016000, 0.032000, 0.992000, 8.273797, 2.502615, 48.830620, 0.070300, -0.025215, 0.055306

1495173743.863174, 0.017410, -0.011606, 0.003360, 0.016000, 0.048000, 0.976000, 8.255406, 2.545094, 48.831537, 0.070113, -0.025179, 0.053850

1495173743.876629, 0.019548, -0.013134, 0.005192, 0.016000, 0.064000, 0.992000, 8.259873, 2.537047, 48.831201, 0.070253, -0.025177, 0.054465

1495173743.890078, 0.018937, -0.010996, 0.005498, 0.016000, 0.064000, 0.992000, 8.263438, 2.530626, 48.830931, 0.070382, -0.025146, 0.055089

1495173743.903541, 0.016493, -0.016493, 0.003054, 0.016000, 0.064000, 0.992000, 8.266283, 2.525500, 48.830714, 0.070478, -0.025187, 0.055676

1495173743.917010, 0.015882, -0.013439, 0.003054, 0.016000, 0.064000, 0.992000, 8.271901, 2.522426, 48.829922, 0.070563, -0.025187, 0.056262

1495173743.930488, 0.017715, -0.016799, 0.002749, 0.016000, 0.048000, 0.992000, 8.276392, 2.519969, 48.829288, 0.070360, -0.025212, 0.054739

1495173743.943961, 0.018021, -0.013744, 0.002138, -0.000000, 0.032000, 1.008000, 8.265424, 2.537398, 48.830243, 0.069869, -0.024826, 0.051293

1495173743.957422, 0.013744, -0.017104, 0.003360, -0.000000, 0.032000, 1.008000, 8.256646, 2.551347, 48.831001, 0.069331, -0.024494, 0.047892

1495173743.970876, 0.017410, -0.015882, 0.003665, 0.016000, 0.080000, 0.992000, 8.249621, 2.562509, 48.831604, 0.069771, -0.024524, 0.050601

1495173743.984345, 0.017715, -0.014050, 0.000916, 0.016000, 0.048000, 0.992000, 8.255237, 2.550992, 48.831258, 0.069583, -0.024526, 0.049087

1495173743.997796, 0.018021, -0.015882, 0.004887, 0.016000, 0.048000, 0.992000, 8.259723, 2.541791, 48.830979, 0.069401, -0.024555, 0.047678

1495173744.011246, 0.019853, -0.009163, 0.005192, 0.016000, 0.048000, 0.992000, 8.248754, 2.553818, 48.832206, 0.069247, -0.024497, 0.046275

1495173744.024711, 0.019242, -0.011301, 0.004276, 0.016000, 0.048000, 0.992000, 8.239979, 2.563440, 48.833183, 0.069088, -0.024466, 0.044859

1495173744.038161, 0.018937, -0.012523, 0.001527, 0.064000, 0.080000, 0.992000, 8.232959, 2.571136, 48.833963, 0.069648, -0.025401, 0.049215

1495173744.051589, 0.020159, -0.011912, 0.003971, 0.016000, 0.064000, 0.992000, 8.276505, 2.544695, 48.827986, 0.069805, -0.025376, 0.049882

1495173744.065076, 0.019548, -0.014661, -0.000611, 0.016000, 0.064000, 0.992000, 8.311431, 2.523483, 48.823154, 0.069953, -0.025385, 0.050522

1495173744.078528, 0.017715, -0.017410, -0.000611, -0.000000, 0.048000, 0.976000, 8.329604, 2.466932, 48.822948, 0.069786, -0.025094, 0.049334

1495173744.091987, 0.018631, -0.016188, 0.001527, 0.032000, 0.080000, 0.992000, 8.344129, 2.421706, 48.822731, 0.070256, -0.025432, 0.052744

1495173744.105437, 0.017715, -0.018326, 0.001527, 0.032000, 0.080000, 0.992000, 8.355740, 2.385534, 48.822527, 0.070704, -0.025791, 0.056178

1495173744.118888, 0.018326, -0.013439, 0.001527, 0.016000, 0.096000, 0.992000, 8.382336, 2.411186, 48.816707, 0.071436, -0.025716, 0.060944

1495173744.132347, 0.023213, -0.012828, 0.003054, 0.016000, 0.096000, 0.992000, 8.403601, 2.431698, 48.812033, 0.072218, -0.025640, 0.065570

1495173744.145797, 0.018326, -0.013134, -0.000305, 0.032000, 0.048000, 0.992000, 8.403162, 2.411781, 48.813097, 0.071978, -0.025926, 0.064095

1495173744.159242, 0.021686, -0.015882, 0.000305, 0.016000, 0.080000, 0.976000, 8.402810, 2.395849, 48.813942, 0.072446, -0.025930, 0.066950

1495173744.172699, 0.023518, -0.017410, 0.001527, 0.016000, 0.080000, 0.976000, 8.402527, 2.383104, 48.814615, 0.072929, -0.025957, 0.069793

1495173744.186148, 0.016799, -0.014355, 0.000611, 0.032000, 0.048000, 0.992000, 8.363412, 2.372243, 48.821861, 0.072655, -0.026254, 0.068361

1495173744.199595, 0.013134, -0.015577, 0.003054, -0.000000, 0.048000, 1.008000, 8.332132, 2.363558, 48.827630, 0.072345, -0.025918, 0.066933

1495173744.213062, 0.022907, -0.015272, 0.004887, -0.000000, 0.048000, 1.008000, 8.339233, 2.355369, 48.826813, 0.072169, -0.025589, 0.065578

1495173744.226511, 0.018631, -0.011606, 0.000916, -0.000000, 0.064000, 1.008000, 8.344906, 2.348826, 48.826159, 0.072233, -0.025233, 0.066062

1495173744.239959, 0.017104, -0.015272, 0.000305, -0.000000, 0.064000, 1.008000, 8.349439, 2.343597, 48.825635, 0.072276, -0.024931, 0.066536

1495173744.253466, 0.017410, -0.015882, 0.000611, -0.000000, 0.064000, 1.008000, 8.359812, 2.341307, 48.823970, 0.072323, -0.024645, 0.067007

1495173744.266935, 0.015577, -0.012523, 0.004276, 0.016000, 0.064000, 0.976000, 8.368116, 2.339474, 48.822636, 0.072387, -0.024651, 0.067975

1495173744.280394, 0.020159, -0.012828, 0.004276, 0.016000, 0.064000, 0.976000, 8.357176, 2.319933, 48.825442, 0.072510, -0.024662, 0.068979

1495173744.293839, 0.016799, -0.013744, 0.003054, 0.016000, 0.064000, 0.976000, 8.348418, 2.304290, 48.827681, 0.072586, -0.024683, 0.069989

1495173744.307272, 0.018021, -0.016188, 0.002749, 0.016000, 0.064000, 0.992000, 8.341407, 2.291769, 48.829468, 0.072656, -0.024730, 0.070869

1495173744.320735, 0.021075, -0.017104, 0.002443, 0.016000, 0.064000, 0.992000, 8.282392, 2.300406, 48.839107, 0.072765, -0.024788, 0.071724

1495173744.334201, 0.018021, -0.014355, 0.002749, 0.016000, 0.064000, 0.992000, 8.235142, 2.307318, 48.846771, 0.072832, -0.024809, 0.072565

1495173744.347660, 0.018021, -0.014966, 0.001527, -0.032000, 0.064000, 0.976000, 8.247295, 2.311488, 48.844523, 0.072913, -0.023858, 0.072926

1495173744.361116, 0.017104, -0.014966, 0.003360, -0.032000, 0.064000, 0.976000, 8.257013, 2.314822, 48.842723, 0.072980, -0.022929, 0.073296

1495173744.374585, 0.020769, -0.014355, 0.002749, 0.016000, 0.080000, 1.008000, 8.264781, 2.317488, 48.841283, 0.073368, -0.022971, 0.075943

1495173744.388039, 0.015577, -0.012523, 0.003360, 0.016000, 0.080000, 1.008000, 8.291803, 2.356867, 48.834818, 0.073680, -0.022989, 0.078431

1495173744.401492, 0.021075, -0.014050, 0.003665, 0.016000, 0.048000, 0.992000, 8.313420, 2.388375, 48.829612, 0.073457, -0.023019, 0.076831

1495173744.414962, 0.019242, -0.015577, 0.003054, 0.016000, 0.048000, 0.976000, 8.337755, 2.379056, 48.825917, 0.073229, -0.023077, 0.075380

1495173744.428416, 0.018021, -0.013744, 0.003665, 0.016000, 0.048000, 0.976000, 8.357253, 2.371588, 48.822947, 0.072989, -0.023110, 0.073987

1495173744.441871, 0.018631, -0.013134, 0.001527, 0.016000, 0.064000, 1.008000, 8.372871, 2.365606, 48.820561, 0.073041, -0.023141, 0.074438

1495173744.455326, 0.016493, -0.015577, 0.004276, -0.000000, 0.048000, 1.024000, 8.363901, 2.396542, 48.820590, 0.072754, -0.022864, 0.072738

1495173744.468775, 0.015577, -0.010996, 0.001833, -0.000000, 0.048000, 1.024000, 8.356721, 2.421294, 48.820598, 0.072461, -0.022531, 0.070985

1495173744.482229, 0.015577, -0.014355, 0.000611, 0.016000, 0.048000, 1.008000, 8.383745, 2.366762, 48.818639, 0.072174, -0.022568, 0.069451

1495173744.495740, 0.016799, -0.016493, 0.002749, 0.016000, 0.048000, 1.008000, 8.405339, 2.323164, 48.817020, 0.071909, -0.022638, 0.068088

1495173744.509282, 0.015882, -0.015272, 0.000611, 0.016000, 0.064000, 0.976000, 8.422599, 2.288305, 48.815692, 0.071988, -0.022718, 0.069099

1495173744.522750, 0.019853, -0.013439, 0.002749, 0.032000, 0.064000, 0.992000, 8.404142, 2.279890, 48.819266, 0.072104, -0.023091, 0.070268

1495173744.536222, 0.016799, -0.015882, 0.003665, 0.032000, 0.064000, 0.992000, 8.389368, 2.273154, 48.822121, 0.072176, -0.023490, 0.071449

1495173744.549662, 0.014661, -0.018021, 0.001833, 0.032000, 0.064000, 0.992000, 8.445209, 2.266276, 48.812813, 0.072219, -0.023907, 0.072578

1495173744.563117, 0.015272, -0.014355, 0.003971, 0.016000, 0.048000, 0.992000, 8.489838, 2.260777, 48.805326, 0.071947, -0.023929, 0.071428

1495173744.576586, 0.021380, -0.018021, 0.003054, 0.016000, 0.048000, 0.992000, 8.525511, 2.256379, 48.799310, 0.071761, -0.023999, 0.070295

1495173744.590038, 0.018326, -0.018631, 0.001222, -0.016000, 0.048000, 0.992000, 8.485797, 2.345600, 48.802025, 0.071562, -0.023428, 0.068931

1495173744.603504, 0.012217, -0.015882, 0.002443, -0.016000, 0.048000, 0.976000, 8.453983, 2.417013, 48.804062, 0.071302, -0.022828, 0.067542

1495173744.616963, 0.014050, -0.009774, 0.003971, 0.016000, 0.048000, 0.976000, 8.440635, 2.326081, 48.810791, 0.071047, -0.022819, 0.066430

1495173744.630409, 0.019853, -0.016493, 0.000916, 0.016000, 0.048000, 1.008000, 8.429946, 2.253398, 48.816047, 0.070844, -0.022884, 0.065285

1495173744.643889, 0.016493, -0.011606, 0.000611, 0.016000, 0.048000, 1.008000, 8.421387, 2.195291, 48.820172, 0.070600, -0.022885, 0.064317

1495173744.657377, 0.016493, -0.011912, 0.000916, 0.016000, 0.048000, 0.992000, 8.389331, 2.238311, 48.823738, 0.070376, -0.022897, 0.063359

1495173744.670833, 0.012828, -0.014355, 0.000916, 0.032000, 0.080000, 1.008000, 8.363729, 2.272657, 48.826543, 0.070735, -0.023247, 0.066696

1495173744.684299, 0.018326, -0.018937, 0.001833, 0.032000, 0.080000, 1.008000, 8.388678, 2.320793, 48.819999, 0.071158, -0.023653, 0.069824

1495173744.697753, 0.019853, -0.017104, 0.003665, 0.016000, 0.064000, 0.992000, 8.408643, 2.359326, 48.814717, 0.071282, -0.023733, 0.070521

1495173744.711201, 0.021380, -0.013134, 0.004581, 0.032000, 0.064000, 1.008000, 8.424619, 2.390167, 48.810462, 0.071408, -0.024071, 0.071210

1495173744.724659, 0.019853, -0.014661, 0.000916, 0.032000, 0.064000, 1.008000, 8.405351, 2.416128, 48.812505, 0.071512, -0.024419, 0.071766

1495173744.738086, 0.015272, -0.015272, 0.000916, 0.016000, 0.064000, 0.992000, 8.389915, 2.436923, 48.814127, 0.071569, -0.024455, 0.072193

1495173744.751520, 0.020159, -0.015577, 0.003971, 0.016000, 0.064000, 0.992000, 8.378154, 2.380611, 48.818926, 0.071689, -0.024498, 0.072803

1495173744.765011, 0.015882, -0.015882, 0.002749, -0.000000, 0.048000, 0.976000, 8.326443, 2.333916, 48.830026, 0.071463, -0.024206, 0.071535

1495173744.778467, 0.017410, -0.015577, 0.001833, 0.016000, 0.048000, 0.992000, 8.285083, 2.296574, 48.838831, 0.071235, -0.024237, 0.070293

1495173744.791930, 0.018326, -0.014050, 0.000916, 0.016000, 0.048000, 0.992000, 8.332703, 2.323660, 48.829447, 0.071025, -0.024245, 0.068992

1495173744.805370, 0.017410, -0.014355, 0.001833, 0.016000, 0.048000, 0.976000, 8.370843, 2.345355, 48.821886, 0.070821, -0.024265, 0.067771

1495173744.818829, 0.020159, -0.014661, 0.004581, 0.016000, 0.064000, 0.992000, 8.401383, 2.362729, 48.815802, 0.070955, -0.024301, 0.068518

1495173744.832285, 0.016188, -0.015272, 0.000916, 0.016000, 0.064000, 0.992000, 8.425834, 2.376639, 48.810913, 0.071035, -0.024341, 0.069157

1495173744.845746, 0.016188, -0.016188, 0.004581, 0.016000, 0.048000, 1.008000, 8.445405, 2.387774, 48.806987, 0.070785, -0.024370, 0.067655

1495173744.859197, 0.018937, -0.015577, 0.003360, 0.016000, 0.048000, 1.008000, 8.397621, 2.375958, 48.815807, 0.070577, -0.024391, 0.066199

1495173744.872701, 0.014661, -0.015577, 0.001833, 0.016000, 0.064000, 0.992000, 8.359440, 2.366516, 48.822819, 0.070645, -0.024435, 0.066943

1495173744.886163, 0.023213, -0.017104, 0.005803, 0.016000, 0.064000, 0.992000, 8.328925, 2.358971, 48.828399, 0.070822, -0.024501, 0.067752

1495173744.899614, 0.021380, -0.015577, 0.001527, 0.016000, 0.064000, 0.992000, 8.332411, 2.355654, 48.827964, 0.070973, -0.024541, 0.068497

1495173744.913076, 0.019548, -0.014355, 0.003054, 0.016000, 0.064000, 0.976000, 8.335203, 2.352996, 48.827616, 0.071116, -0.024572, 0.069393

1495173744.926538, 0.024129, -0.016799, 0.005498, 0.016000, 0.032000, 1.008000, 8.348168, 2.385344, 48.823831, 0.070663, -0.024555, 0.065869

1495173744.939989, 0.025962, -0.015882, 0.003360, 0.016000, 0.032000, 1.008000, 8.358529, 2.411203, 48.820788, 0.070244, -0.024524, 0.062323

1495173744.953453, 0.018631, -0.012523, 0.003360, 0.016000, 0.064000, 0.992000, 8.366811, 2.431876, 48.818344, 0.070370, -0.024526, 0.062994

1495173744.966914, 0.015577, -0.014661, 0.002138, 0.016000, 0.064000, 1.008000, 8.387797, 2.447263, 48.813974, 0.070434, -0.024548, 0.063455

1495173744.980361, 0.016188, -0.011606, 0.002443, 0.032000, 0.064000, 1.008000, 8.404563, 2.459557, 48.810472, 0.070508, -0.024848, 0.064064

1495173744.993817, 0.019242, -0.014050, 0.000916, -0.000000, 0.064000, 1.024000, 8.413835, 2.473536, 48.808168, 0.070599, -0.024537, 0.064150

1495173745.007274, 0.020769, -0.014050, 0.003971, -0.000000, 0.064000, 1.024000, 8.421269, 2.484744, 48.806317, 0.070708, -0.024235, 0.064247

1495173745.020721, 0.022907, -0.015272, 0.001527, 0.016000, 0.064000, 0.992000, 8.427227, 2.493727, 48.804830, 0.070882, -0.024276, 0.064675

1495173745.034222, 0.019853, -0.013134, 0.003360, 0.016000, 0.064000, 1.008000, 8.439367, 2.515994, 48.801589, 0.070994, -0.024284, 0.064928

1495173745.047694, 0.019242, -0.013744, 0.003665, 0.016000, 0.064000, 1.008000, 8.449067, 2.533786, 48.798990, 0.071094, -0.024301, 0.065132

1495173745.061131, 0.019853, -0.014050, 0.004887, -0.000000, 0.048000, 0.992000, 8.421609, 2.511820, 48.804872, 0.070920, -0.023985, 0.063529

1495173745.074597, 0.023213, -0.013744, 0.004276, -0.000000, 0.048000, 1.008000, 8.399651, 2.494254, 48.809557, 0.070778, -0.023671, 0.061903

1495173745.088062, 0.018937, -0.015882, 0.004581, -0.000000, 0.048000, 1.008000, 8.382088, 2.480206, 48.813292, 0.070582, -0.023393, 0.060344

1495173745.101510, 0.015577, -0.015577, 0.002138, 0.032000, 0.064000, 1.008000, 8.311819, 2.413698, 48.828639, 0.070647, -0.023768, 0.061170

1495173745.114968, 0.018631, -0.017410, 0.002443, 0.032000, 0.064000, 1.008000, 8.255610, 2.360514, 48.840773, 0.070751, -0.024161, 0.062158

1495173745.128427, 0.016493, -0.012523, 0.004887, 0.016000, 0.064000, 0.992000, 8.266867, 2.373225, 48.838253, 0.070838, -0.024172, 0.063036

1495173745.141882, 0.019548, -0.012828, 0.002138, 0.016000, 0.064000, 0.992000, 8.275872, 2.383392, 48.836233, 0.070964, -0.024184, 0.063830

1495173745.155331, 0.016799, -0.015272, -0.000000, 0.016000, 0.064000, 0.992000, 8.283075, 2.391526, 48.834614, 0.071052, -0.024225, 0.064555

1495173745.168788, 0.023213, -0.018937, 0.004887, -0.000000, 0.064000, 0.976000, 8.300605, 2.304811, 48.835807, 0.071235, -0.023997, 0.065461

1495173745.182241, 0.017104, -0.014355, 0.001222, -0.000000, 0.048000, 0.992000, 8.314590, 2.235533, 48.836649, 0.071015, -0.023696, 0.064466

1495173745.195695, 0.016799, -0.015577, 0.000611, -0.000000, 0.048000, 0.992000, 8.328431, 2.272140, 48.832601, 0.070795, -0.023415, 0.063393

1495173745.209151, 0.018937, -0.018326, 0.001833, 0.032000, 0.080000, 1.008000, 8.339495, 2.301414, 48.829341, 0.071225, -0.023809, 0.066675

1495173745.222604, 0.017715, -0.016188, 0.000611, 0.032000, 0.080000, 1.008000, 8.348343, 2.324826, 48.826720, 0.071630, -0.024167, 0.069804

1495173745.236053, 0.024129, -0.015272, 0.004887, 0.064000, 0.064000, 0.992000, 8.320111, 2.325632, 48.831501, 0.071838, -0.025181, 0.071616

1495173745.249509, 0.022297, -0.012217, 0.002749, 0.032000, 0.048000, 1.024000, 8.297521, 2.326277, 48.835313, 0.071627, -0.025445, 0.070098

1495173745.262961, 0.018937, -0.014966, 0.001527, 0.032000, 0.048000, 1.024000, 8.296746, 2.381272, 48.832795, 0.071376, -0.025738, 0.068428

1495173745.276410, 0.017410, -0.013744, 0.002138, -0.000000, 0.080000, 0.976000, 8.296118, 2.425259, 48.830736, 0.071783, -0.025395, 0.070818

1495173745.289858, 0.019242, -0.015882, 0.002443, 0.032000, 0.032000, 1.008000, 8.295611, 2.460442, 48.829062, 0.071226, -0.025651, 0.066734

1495173745.303322, 0.017715, -0.016188, -0.001222, 0.032000, 0.032000, 1.008000, 8.295203, 2.488585, 48.827705, 0.070662, -0.025904, 0.062601

1495173745.316777, 0.018021, -0.014966, 0.001222, 0.016000, 0.032000, 1.008000, 8.294874, 2.511097, 48.826609, 0.070142, -0.025829, 0.058814

1495173745.330226, 0.020769, -0.013134, -0.000000, 0.016000, 0.032000, 1.008000, 8.237930, 2.546740, 48.834403, 0.069669, -0.025731, 0.054975

1495173745.343694, 0.019242, -0.013744, 0.003971, 0.016000, 0.064000, 0.976000, 8.192386, 2.575238, 48.840569, 0.069835, -0.025729, 0.055606

1495173745.357157, 0.020464, -0.011912, 0.003665, 0.016000, 0.064000, 0.976000, 8.155958, 2.598025, 48.845459, 0.070015, -0.025703, 0.056169

1495173745.370611, 0.018937, -0.010996, 0.003360, 0.016000, 0.064000, 0.976000, 8.180322, 2.579419, 48.842371, 0.070170, -0.025665, 0.056762

1495173745.384076, 0.025045, -0.018021, 0.005192, 0.016000, 0.064000, 0.992000, 8.199802, 2.564542, 48.839888, 0.070382, -0.025717, 0.057255

1495173745.397524, 0.018937, -0.014355, -0.001222, 0.016000, 0.048000, 0.976000, 8.183858, 2.481253, 48.846864, 0.070214, -0.025704, 0.055869

1495173745.410969, 0.017410, -0.014661, 0.003971, 0.016000, 0.048000, 0.976000, 8.171076, 2.414567, 48.852345, 0.070027, -0.025701, 0.054759

1495173745.424434, 0.020464, -0.014050, 0.003360, 0.032000, 0.064000, 0.976000, 8.160833, 2.361183, 48.856667, 0.070210, -0.026033, 0.056245

1495173745.437883, 0.022907, -0.015882, 0.004581, 0.016000, 0.064000, 1.008000, 8.201671, 2.426247, 48.846639, 0.070371, -0.026044, 0.056976

1495173745.451329, 0.020769, -0.018326, 0.006414, 0.016000, 0.064000, 1.008000, 8.234298, 2.478249, 48.838539, 0.070501, -0.026089, 0.057567

1495173745.464793, 0.019242, -0.018326, 0.005192, 0.016000, 0.064000, 0.992000, 8.249475, 2.503819, 48.834673, 0.070629, -0.026137, 0.058194

1495173745.478240, 0.021686, -0.018631, 0.000916, 0.016000, 0.064000, 0.992000, 8.261626, 2.524296, 48.831565, 0.070789, -0.026184, 0.058693

1495173745.491687, 0.019853, -0.018937, 0.002443, -0.000000, 0.080000, 0.992000, 8.271354, 2.540691, 48.829068, 0.071215, -0.025902, 0.060868

1495173745.505150, 0.018326, -0.013439, 0.003665, 0.016000, 0.048000, 0.992000, 8.308059, 2.533246, 48.823223, 0.071007, -0.025867, 0.059235

1495173745.518595, 0.021075, -0.011301, -0.000916, 0.016000, 0.048000, 0.992000, 8.337386, 2.527295, 48.818532, 0.070840, -0.025802, 0.057593

1495173745.532048, 0.018021, -0.015272, 0.000611, -0.000000, 0.048000, 0.992000, 8.343124, 2.522695, 48.817789, 0.070648, -0.025470, 0.056056

1495173745.545482, 0.020159, -0.014355, 0.002749, 0.016000, 0.064000, 0.992000, 8.347711, 2.519016, 48.817195, 0.070786, -0.025475, 0.056618

1495173745.558904, 0.018631, -0.018021, 0.004887, 0.016000, 0.064000, 0.992000, 8.351379, 2.516075, 48.816719, 0.070900, -0.025531, 0.057202

1495173745.572366, 0.015272, -0.015882, 0.001833, 0.016000, 0.064000, 0.992000, 8.392912, 2.532596, 48.808742, 0.070970, -0.025554, 0.057681

1495173745.585815, 0.022907, -0.018326, 0.003971, 0.016000, 0.064000, 0.992000, 8.426139, 2.545813, 48.802329, 0.071138, -0.025611, 0.058135

1495173745.599264, 0.020159, -0.017410, 0.003360, 0.016000, 0.064000, 0.976000, 8.414578, 2.483000, 48.807559, 0.071286, -0.025660, 0.058875

1495173745.612719, 0.018326, -0.016188, 0.003054, 0.016000, 0.064000, 0.976000, 8.405323, 2.432760, 48.811684, 0.071407, -0.025692, 0.059732

1495173745.626166, 0.019853, -0.014355, 0.004581, 0.016000, 0.064000, 0.976000, 8.397914, 2.392575, 48.814945, 0.071545, -0.025702, 0.060700

1495173745.639615, 0.016188, -0.011301, 0.002443, -0.016000, 0.064000, 0.976000, 8.367256, 2.394987, 48.820091, 0.071625, -0.025013, 0.061262

1495173745.653078, 0.017410, -0.013439, 0.007941, 0.032000, 0.048000, 0.976000, 8.342765, 2.396913, 48.824188, 0.071399, -0.025338, 0.060140

1495173745.666531, 0.018937, -0.014050, 0.007330, 0.032000, 0.048000, 0.976000, 8.340701, 2.416435, 48.823578, 0.071197, -0.025664, 0.058973

1495173745.679977, 0.021686, -0.016493, 0.001527, -0.000000, 0.064000, 1.008000, 8.339051, 2.432034, 48.823086, 0.071322, -0.025371, 0.059396

1495173745.693440, 0.017715, -0.018631, 0.001222, -0.000000, 0.064000, 1.008000, 8.337732, 2.444502, 48.822688, 0.071392, -0.025111, 0.059774

1495173745.706887, 0.021380, -0.016493, 0.001833, 0.016000, 0.064000, 0.992000, 8.311580, 2.439603, 48.827392, 0.071531, -0.025152, 0.060467

1495173745.720335, 0.019548, -0.015577, 0.004581, 0.016000, 0.064000, 0.976000, 8.290618, 2.435676, 48.831152, 0.071663, -0.025188, 0.061339

1495173745.733776, 0.015272, -0.015577, -0.001222, 0.016000, 0.064000, 0.976000, 8.220739, 2.432975, 48.843099, 0.071738, -0.025217, 0.062145

1495173745.747190, 0.018937, -0.014661, -0.000000, 0.016000, 0.064000, 0.992000, 8.164738, 2.430807, 48.852600, 0.071838, -0.025230, 0.062834

1495173745.760715, 0.021075, -0.013439, 0.002749, 0.016000, 0.048000, 0.976000, 8.119877, 2.429068, 48.860163, 0.071668, -0.025218, 0.061531

1495173745.774183, 0.019548, -0.018631, 0.004276, 0.016000, 0.048000, 0.976000, 8.155193, 2.390713, 48.856172, 0.071480, -0.025277, 0.060374

1495173745.787631, 0.018326, -0.016799, 0.002138, 0.016000, 0.064000, 0.992000, 8.183450, 2.360015, 48.852940, 0.071576, -0.025319, 0.061308

1495173745.801059, 0.023213, -0.016799, 0.003360, 0.016000, 0.048000, 0.992000, 8.194805, 2.355691, 48.851245, 0.071422, -0.025345, 0.060134

1495173745.814567, 0.023518, -0.015577, 0.002443, 0.016000, 0.048000, 0.992000, 8.203905, 2.352225, 48.849885, 0.071277, -0.025355, 0.058982

1495173745.828044, 0.019242, -0.016188, 0.003360, 0.016000, 0.032000, 0.960000, 8.211196, 2.349448, 48.848793, 0.070786, -0.025339, 0.055892

1495173745.841500, 0.020464, -0.011606, 0.003971, 0.016000, 0.032000, 0.960000, 8.263377, 2.381351, 48.838448, 0.070321, -0.025264, 0.052804

1495173745.854979, 0.022907, -0.012828, 0.002138, 0.016000, 0.048000, 1.008000, 8.305074, 2.406847, 48.830125, 0.070174, -0.025233, 0.051549

1495173745.868431, 0.019242, -0.013744, 0.001527, -0.000000, 0.048000, 0.960000, 8.320665, 2.427376, 48.826454, 0.070036, -0.024901, 0.050564

1495173745.881889, 0.013744, -0.015577, 0.004581, -0.000000, 0.048000, 0.960000, 8.333130, 2.443792, 48.823510, 0.069827, -0.024602, 0.049597

1495173745.895342, 0.019242, -0.015577, 0.003054, 0.016000, 0.064000, 1.008000, 8.343097, 2.456919, 48.821149, 0.069949, -0.024636, 0.050323

1495173745.908797, 0.026267, -0.013134, 0.003971, 0.016000, 0.064000, 0.992000, 8.311793, 2.521313, 48.823205, 0.070181, -0.024644, 0.051021

1495173745.922255, 0.022602, -0.019242, 0.003054, 0.016000, 0.064000, 0.992000, 8.286758, 2.572781, 48.824775, 0.070361, -0.024731, 0.051556

1495173745.935905, 0.021991, -0.018937, 0.005498, 0.032000, 0.048000, 0.992000, 8.267678, 2.504834, 48.831543, 0.070209, -0.025122, 0.050155

1495173745.949438, 0.015272, -0.013439, 0.005192, 0.032000, 0.048000, 0.992000, 8.252407, 2.450492, 48.836883, 0.069969, -0.025433, 0.048946

1495173745.962925, 0.021380, -0.014966, 0.002138, 0.032000, 0.048000, 1.008000, 8.240185, 2.407029, 48.841108, 0.069800, -0.025744, 0.047737

1495173745.976404, 0.023518, -0.015577, 0.003971, 0.016000, 0.064000, 1.008000, 8.236764, 2.410574, 48.841510, 0.069977, -0.025758, 0.048663

1495173745.989998, 0.017410, -0.016493, 0.002138, 0.016000, 0.064000, 1.008000, 8.234023, 2.413413, 48.841832, 0.070073, -0.025783, 0.049538

1495173746.003560, 0.018937, -0.013744, 0.003054, 0.016000, 0.048000, 0.992000, 8.232632, 2.447013, 48.840395, 0.069895, -0.025762, 0.048352

1495173746.017026, 0.021075, -0.012828, 0.002138, -0.000000, 0.064000, 1.008000, 8.231521, 2.473811, 48.839232, 0.070036, -0.025419, 0.048921

1495173746.030485, 0.021380, -0.013134, 0.004581, -0.000000, 0.064000, 1.008000, 8.230632, 2.495197, 48.838294, 0.070178, -0.025090, 0.049459

1495173746.043933, 0.020464, -0.014050, -0.000305, 0.016000, 0.064000, 1.008000, 8.240166, 2.479039, 48.837509, 0.070310, -0.025091, 0.050112

1495173746.057367, 0.017104, -0.014355, 0.001222, 0.016000, 0.064000, 1.008000, 8.247798, 2.466104, 48.836876, 0.070394, -0.025098, 0.050805

1495173746.070822, 0.022907, -0.015882, 0.003054, 0.016000, 0.080000, 0.976000, 8.254204, 2.419457, 48.838127, 0.070909, -0.025118, 0.053986

1495173746.084294, 0.021075, -0.014661, 0.002443, -0.000000, 0.064000, 1.008000, 8.259326, 2.382118, 48.839096, 0.071028, -0.024814, 0.054660

1495173746.097743, 0.021075, -0.011301, 0.000916, -0.000000, 0.064000, 1.008000, 8.263422, 2.352234, 48.839852, 0.071145, -0.024470, 0.055374

1495173746.111190, 0.020769, -0.013439, 0.002443, 0.032000, 0.048000, 0.976000, 8.248576, 2.382943, 48.840873, 0.070974, -0.024802, 0.054341

1495173746.124638, 0.023213, -0.019548, 0.004887, 0.032000, 0.064000, 0.992000, 8.236693, 2.407515, 48.841673, 0.071152, -0.025215, 0.055519

1495173746.138104, 0.019853, -0.012828, 0.002138, 0.032000, 0.064000, 0.992000, 8.227476, 2.390852, 48.844045, 0.071283, -0.025529, 0.056697

1495173746.151556, 0.018021, -0.012523, 0.003971, -0.000000, 0.064000, 1.024000, 8.220100, 2.377518, 48.845938, 0.071336, -0.025190, 0.057242

1495173746.165019, 0.019242, -0.016493, 0.003971, 0.016000, 0.064000, 0.960000, 8.214197, 2.366849, 48.847449, 0.071488, -0.025242, 0.058522

1495173746.178467, 0.018631, -0.014966, 0.001833, 0.016000, 0.064000, 0.960000, 8.174057, 2.358598, 48.854581, 0.071630, -0.025272, 0.059786

1495173746.191922, 0.018631, -0.012828, 0.002749, 0.032000, 0.064000, 0.976000, 8.141930, 2.351994, 48.860264, 0.071757, -0.025596, 0.061200

1495173746.205380, 0.017715, -0.011912, 0.004276, 0.032000, 0.064000, 0.976000, 8.125775, 2.385949, 48.861307, 0.071868, -0.025903, 0.062510

1495173746.218825, 0.019853, -0.017715, 0.003971, 0.016000, 0.080000, 0.992000, 8.112817, 2.413176, 48.862123, 0.072286, -0.025932, 0.065393

1495173746.232279, 0.021991, -0.012523, 0.004581, 0.016000, 0.080000, 1.008000, 8.102429, 2.434998, 48.862764, 0.072700, -0.025890, 0.068010

1495173746.245736, 0.019242, -0.013744, 0.005498, 0.016000, 0.080000, 1.008000, 8.099207, 2.393731, 48.865337, 0.073069, -0.025867, 0.070695

1495173746.259183, 0.020769, -0.018021, 0.007330, -0.000000, 0.048000, 0.976000, 8.096630, 2.360773, 48.867367, 0.072879, -0.025579, 0.069471

1495173746.272635, 0.018937, -0.014966, 0.001222, 0.016000, 0.064000, 0.992000, 8.133182, 2.353299, 48.861658, 0.072956, -0.025590, 0.070247

1495173746.286100, 0.020464, -0.013134, 0.004581, 0.016000, 0.064000, 0.992000, 8.162403, 2.347323, 48.857072, 0.073051, -0.025581, 0.071060

1495173746.299529, 0.017410, -0.017715, 0.001527, 0.016000, 0.048000, 0.976000, 8.185765, 2.342544, 48.853393, 0.072807, -0.025616, 0.069807

1495173746.312963, 0.017104, -0.013134, 0.001222, 0.016000, 0.048000, 0.976000, 8.186441, 2.375229, 48.851701, 0.072565, -0.025589, 0.068490

1495173746.326423, 0.021686, -0.014966, 0.003971, 0.016000, 0.080000, 0.992000, 8.186979, 2.401369, 48.850333, 0.072995, -0.025590, 0.071244

1495173746.339872, 0.022297, -0.014966, 0.007941, 0.016000, 0.064000, 0.992000, 8.240835, 2.385486, 48.842055, 0.073113, -0.025607, 0.071953

1495173746.353349, 0.018631, -0.013744, 0.004887, 0.016000, 0.064000, 0.992000, 8.283893, 2.372784, 48.835390, 0.073181, -0.025605, 0.072629

1495173746.366809, 0.017715, -0.013134, 0.002443, -0.000000, 0.048000, 0.992000, 8.318322, 2.362624, 48.830030, 0.072936, -0.025251, 0.071203

1495173746.380261, 0.015882, -0.014966, 0.003360, 0.016000, 0.064000, 0.992000, 8.292491, 2.391271, 48.833029, 0.072972, -0.025270, 0.071822

1495173746.393718, 0.018631, -0.016799, 0.000611, 0.016000, 0.064000, 0.992000, 8.271821, 2.414189, 48.835407, 0.073044, -0.025310, 0.072336

1495173746.407176, 0.024129, -0.016799, 0.006109, 0.016000, 0.080000, 0.992000, 8.301015, 2.398795, 48.831211, 0.073497, -0.025344, 0.074981

1495173746.420627, 0.018937, -0.012523, 0.002443, 0.016000, 0.080000, 0.992000, 8.324416, 2.386453, 48.827832, 0.073874, -0.025317, 0.077547

1495173746.434080, 0.016493, -0.014661, 0.002138, -0.000000, 0.064000, 0.992000, 8.343166, 2.376564, 48.825114, 0.073898, -0.025007, 0.077858

1495173746.447533, 0.020159, -0.013744, 0.000611, 0.016000, 0.048000, 0.976000, 8.312298, 2.402482, 48.829111, 0.073676, -0.024997, 0.076294

1495173746.460983, 0.018326, -0.011912, 0.004581, 0.016000, 0.048000, 0.976000, 8.287624, 2.423195, 48.832281, 0.073433, -0.024966, 0.074762

1495173746.474436, 0.017715, -0.018021, 0.006414, -0.000000, 0.064000, 0.960000, 8.299837, 2.456650, 48.828535, 0.073522, -0.024712, 0.075249

1495173746.487890, 0.023824, -0.018021, 0.007330, 0.016000, 0.064000, 0.992000, 8.309588, 2.483371, 48.825525, 0.073651, -0.024784, 0.075588

1495173746.501340, 0.020769, -0.016188, 0.008247, 0.016000, 0.064000, 0.992000, 8.317377, 2.504720, 48.823108, 0.073737, -0.024833, 0.075876

1495173746.514789, 0.018021, -0.014661, 0.003971, -0.000000, 0.016000, 0.992000, 8.277535, 2.487944, 48.830736, 0.072897, -0.024378, 0.070359

1495173746.528242, 0.021686, -0.012828, 0.003054, 0.064000, 0.064000, 0.992000, 8.245623, 2.474509, 48.836818, 0.073037, -0.025353, 0.071613

1495173746.541693, 0.019242, -0.015272, 0.003665, 0.016000, 0.064000, 0.992000, 8.262920, 2.374444, 48.838862, 0.073114, -0.025375, 0.072281

1495173746.555131, 0.013744, -0.015577, 0.003971, 0.016000, 0.048000, 0.992000, 8.276761, 2.294220, 48.840353, 0.072805, -0.025382, 0.071059

1495173746.568592, 0.015882, -0.014966, 0.005192, 0.016000, 0.048000, 0.992000, 8.287836, 2.229932, 48.841452, 0.072529, -0.025386, 0.070049

1495173746.582048, 0.015882, -0.015882, 0.002749, 0.016000, 0.064000, 1.008000, 8.271684, 2.249735, 48.843282, 0.072552, -0.025410, 0.070928

1495173746.595563, 0.018326, -0.018021, 0.001833, -0.000000, 0.064000, 0.992000, 8.258766, 2.265571, 48.844736, 0.072623, -0.025145, 0.071650

1495173746.609083, 0.015272, -0.013744, 0.002138, -0.000000, 0.064000, 0.992000, 8.217382, 2.274693, 48.851291, 0.072652, -0.024829, 0.072357

1495173746.622560, 0.014966, -0.016188, 0.002138, 0.016000, 0.048000, 0.992000, 8.184372, 2.281967, 48.856493, 0.072369, -0.024855, 0.071146

1495173746.636025, 0.020159, -0.016799, 0.003971, -0.000000, 0.032000, 0.976000, 8.158026, 2.287771, 48.860628, 0.071882, -0.024523, 0.068092

1495173746.649488, 0.019853, -0.015882, 0.002138, -0.000000, 0.032000, 0.976000, 8.238179, 2.349881, 48.844229, 0.071401, -0.024184, 0.064942

1495173746.662945, 0.020159, -0.013134, 0.003971, 0.016000, 0.080000, 1.008000, 8.302321, 2.399595, 48.830950, 0.071811, -0.024184, 0.067542

1495173746.676395, 0.018631, -0.010996, 0.002138, 0.016000, 0.080000, 1.008000, 8.304520, 2.368117, 48.832113, 0.072193, -0.024154, 0.070148

1495173746.689848, 0.023518, -0.015882, 0.003971, 0.032000, 0.064000, 1.008000, 8.306280, 2.342893, 48.833030, 0.072329, -0.024521, 0.071011

1495173746.703458, 0.015882, -0.013744, 0.003054, 0.032000, 0.064000, 0.992000, 8.307688, 2.322687, 48.833756, 0.072386, -0.024864, 0.072060

1495173746.716913, 0.015882, -0.013744, 0.000305, 0.032000, 0.064000, 0.992000, 8.294680, 2.393683, 48.832539, 0.072439, -0.025194, 0.072848

1495173746.730368, 0.020769, -0.012217, 0.002443, -0.000000, 0.080000, 1.008000, 8.284285, 2.450349, 48.831493, 0.072824, -0.024848, 0.074808

1495173746.743815, 0.019242, -0.016493, 0.003360, 0.048000, 0.064000, 0.960000, 8.243940, 2.496909, 48.835962, 0.072965, -0.025571, 0.075935

1495173746.757267, 0.019853, -0.015882, 0.002749, 0.048000, 0.064000, 0.960000, 8.211671, 2.534136, 48.839481, 0.073110, -0.026271, 0.076921

1495173746.770729, 0.018326, -0.014050, 0.001222, 0.016000, 0.048000, 0.992000, 8.185860, 2.563905, 48.842260, 0.072867, -0.026229, 0.074846

1495173746.784193, 0.020464, -0.012217, 0.000916, 0.016000, 0.048000, 0.992000, 8.147834, 2.551586, 48.849263, 0.072657, -0.026164, 0.072842

1495173746.797624, 0.018631, -0.016799, 0.002138, 0.016000, 0.032000, 0.992000, 8.117412, 2.541731, 48.854841, 0.072117, -0.026105, 0.068782

1495173746.811055, 0.018021, -0.015272, 0.003665, 0.016000, 0.048000, 0.992000, 8.185718, 2.425232, 48.849366, 0.071886, -0.026091, 0.067276

1495173746.824533, 0.021075, -0.015577, 0.000916, 0.016000, 0.048000, 0.992000, 8.240337, 2.331989, 48.844723, 0.071700, -0.026083, 0.066014

1495173746.837987, 0.019242, -0.014050, 0.001222, 0.016000, 0.064000, 0.976000, 8.284015, 2.257367, 48.840840, 0.071824, -0.026078, 0.067205

1495173746.851439, 0.021380, -0.015882, 0.001527, 0.016000, 0.048000, 0.976000, 8.317971, 2.324770, 48.831906, 0.071657, -0.026081, 0.066072

1495173746.864907, 0.017410, -0.017104, -0.000305, 0.016000, 0.048000, 0.976000, 8.345121, 2.378684, 48.824677, 0.071443, -0.026098, 0.064793

1495173746.878359, 0.018631, -0.015577, 0.003971, 0.016000, 0.048000, 0.992000, 8.320658, 2.406043, 48.827511, 0.071233, -0.026091, 0.063421

1495173746.891819, 0.021991, -0.014966, 0.005803, 0.032000, 0.064000, 0.992000, 8.301050, 2.427968, 48.829764, 0.071388, -0.026418, 0.064351

1495173746.905276, 0.021991, -0.015577, 0.003360, 0.032000, 0.064000, 0.992000, 8.285338, 2.445532, 48.831556, 0.071540, -0.026744, 0.065182

1495173746.918724, 0.018631, -0.012217, -0.000305, 0.032000, 0.064000, 0.992000, 8.245169, 2.438587, 48.838701, 0.071646, -0.027016, 0.065987

1495173746.932191, 0.022297, -0.015882, 0.002443, 0.032000, 0.064000, 0.992000, 8.213066, 2.433037, 48.844387, 0.071798, -0.027334, 0.066836

1495173746.945666, 0.017104, -0.016799, 0.003971, -0.000000, 0.048000, 1.008000, 8.194014, 2.430560, 48.847710, 0.071560, -0.026993, 0.065287

1495173746.959120, 0.014050, -0.015577, 0.001527, -0.000000, 0.064000, 0.976000, 8.196490, 2.428430, 48.847401, 0.071616, -0.026662, 0.065869

1495173746.972579, 0.015882, -0.013439, 0.002749, -0.000000, 0.064000, 0.976000, 8.198471, 2.426725, 48.847153, 0.071694, -0.026310, 0.066461

1495173746.986029, 0.017715, -0.015272, 0.003665, -0.000000, 0.048000, 0.976000, 8.146990, 2.407603, 48.856712, 0.071493, -0.025973, 0.065159

1495173746.999476, 0.014966, -0.013744, 0.003971, 0.016000, 0.048000, 1.008000, 8.105769, 2.392294, 48.864319, 0.071219, -0.025938, 0.063719

1495173747.012938, 0.023518, -0.014050, 0.004276, 0.016000, 0.048000, 1.008000, 8.072771, 2.380038, 48.870380, 0.071063, -0.025908, 0.062346

1495173747.026387, 0.020769, -0.014661, 0.005192, -0.000000, 0.064000, 1.008000, 8.046358, 2.370228, 48.875213, 0.071175, -0.025590, 0.062969

1495173747.039836, 0.015272, -0.015272, 0.002138, -0.000000, 0.064000, 1.008000, 8.025219, 2.362377, 48.879068, 0.071213, -0.025283, 0.063563

1495173747.053405, 0.018631, -0.013744, 0.002443, 0.016000, 0.048000, 0.976000, 8.114908, 2.355249, 48.864602, 0.071024, -0.025277, 0.062444

1495173747.066861, 0.019242, -0.014966, 0.001222, 0.016000, 0.064000, 0.992000, 8.186608, 2.349543, 48.852916, 0.071142, -0.025295, 0.063354

1495173747.080309, 0.021686, -0.014661, 0.002749, 0.016000, 0.064000, 0.992000, 8.243935, 2.344976, 48.843494, 0.071288, -0.025309, 0.064260

1495173747.093777, 0.023518, -0.014050, 0.005192, 0.016000, 0.064000, 0.992000, 8.198340, 2.268275, 48.854789, 0.071455, -0.025319, 0.065399

1495173747.107236, 0.016799, -0.015272, 0.003971, 0.016000, 0.048000, 1.008000, 8.161854, 2.206926, 48.863707, 0.071203, -0.025322, 0.064456

1495173747.120687, 0.016493, -0.016493, 0.003360, 0.016000, 0.048000, 1.008000, 8.195001, 2.269410, 48.855297, 0.070953, -0.025340, 0.063351

1495173747.134150, 0.016799, -0.016799, 0.002749, 0.016000, 0.064000, 0.992000, 8.221546, 2.319469, 48.848485, 0.071039, -0.025382, 0.064330

1495173747.147599, 0.016799, -0.014966, 0.002443, 0.016000, 0.064000, 0.992000, 8.242800, 2.359561, 48.842983, 0.071124, -0.025398, 0.065174

1495173747.161047, 0.021075, -0.011606, 0.004581, 0.064000, 0.032000, 0.928000, 8.246745, 2.351364, 48.842712, 0.070585, -0.026347, 0.061183

1495173747.174515, 0.018021, -0.014050, 0.003971, 0.016000, 0.064000, 1.008000, 8.249893, 2.344821, 48.842495, 0.070674, -0.026329, 0.062012

1495173747.187965, 0.018326, -0.015272, 0.003360, 0.016000, 0.064000, 1.008000, 8.247722, 2.379955, 48.841163, 0.070766, -0.026326, 0.062723

1495173747.201414, 0.018631, -0.013134, 0.003971, 0.016000, 0.048000, 1.008000, 8.245980, 2.408106, 48.840077, 0.070555, -0.026276, 0.061290

1495173747.214878, 0.022907, -0.013744, 0.003971, -0.000000, 0.064000, 0.992000, 8.244581, 2.430656, 48.839196, 0.070727, -0.025936, 0.061845

1495173747.228326, 0.014966, -0.016188, 0.001833, -0.000000, 0.064000, 0.992000, 8.236788, 2.446732, 48.839708, 0.070792, -0.025634, 0.062321

1495173747.241784, 0.019853, -0.016493, 0.002443, 0.016000, 0.064000, 1.008000, 8.230555, 2.459585, 48.840113, 0.070903, -0.025659, 0.062805

1495173747.255238, 0.022297, -0.013744, 0.004276, 0.016000, 0.064000, 0.976000, 8.248033, 2.429191, 48.838686, 0.071084, -0.025660, 0.063658

1495173747.268689, 0.018021, -0.013439, 0.003360, 0.016000, 0.064000, 0.976000, 8.261965, 2.404960, 48.837530, 0.071204, -0.025656, 0.064542

1495173747.282144, 0.016799, -0.015577, 0.002443, 0.032000, 0.032000, 0.992000, 8.273077, 2.385628, 48.836597, 0.070637, -0.025924, 0.060859

1495173747.295579, 0.018937, -0.014355, 0.000305, 0.032000, 0.032000, 0.992000, 8.277614, 2.374162, 48.836387, 0.070110, -0.026170, 0.057258

1495173747.308999, 0.015577, -0.015882, 0.001833, -0.000000, 0.064000, 1.008000, 8.281247, 2.364978, 48.836217, 0.070172, -0.025859, 0.057893

1495173747.322453, 0.015882, -0.014966, 0.000916, 0.016000, 0.048000, 0.976000, 8.280960, 2.338506, 48.837540, 0.069966, -0.025857, 0.056904

1495173747.335911, 0.023518, -0.014966, 0.003971, 0.016000, 0.048000, 0.976000, 8.280729, 2.317326, 48.838589, 0.069863, -0.025858, 0.056033

1495173747.349361, 0.018021, -0.014050, 0.001222, 0.016000, 0.064000, 0.992000, 8.280543, 2.300381, 48.839422, 0.069986, -0.025852, 0.057172

1495173747.362828, 0.017410, -0.014050, -0.000000, 0.032000, 0.048000, 0.992000, 8.294742, 2.285761, 48.837699, 0.069781, -0.026154, 0.056244

1495173747.376324, 0.019548, -0.010996, 0.002443, 0.032000, 0.048000, 0.992000, 8.306092, 2.274074, 48.836315, 0.069608, -0.026414, 0.055404

1495173747.389801, 0.016799, -0.014355, 0.004581, 0.016000, 0.080000, 1.008000, 8.342347, 2.340012, 48.827020, 0.070005, -0.026382, 0.058333

1495173747.403278, 0.018326, -0.015882, 0.002138, 0.016000, 0.080000, 1.008000, 8.371378, 2.392835, 48.819490, 0.070416, -0.026371, 0.061020

1495173747.416749, 0.018326, -0.012523, 0.001222, -0.000000, 0.064000, 1.024000, 8.394620, 2.435138, 48.813407, 0.070495, -0.026010, 0.061267

1495173747.430200, 0.019853, -0.016493, 0.000916, -0.000000, 0.048000, 0.992000, 8.357321, 2.395714, 48.821758, 0.070330, -0.025694, 0.059965

1495173747.443665, 0.021075, -0.014355, -0.001222, -0.000000, 0.048000, 0.992000, 8.327459, 2.364157, 48.828398, 0.070185, -0.025355, 0.058738

1495173747.457127, 0.020464, -0.015882, 0.002443, -0.000000, 0.064000, 1.008000, 8.335631, 2.337668, 48.828279, 0.070311, -0.025061, 0.059403

1495173747.470577, 0.019548, -0.015577, 0.005192, 0.016000, 0.064000, 0.976000, 8.342162, 2.316490, 48.828173, 0.070465, -0.025100, 0.060602

1495173747.484041, 0.021380, -0.014661, 0.002749, 0.016000, 0.064000, 0.976000, 8.347384, 2.299556, 48.828081, 0.070642, -0.025123, 0.061787

1495173747.497559, 0.015882, -0.017410, 0.002443, -0.000000, 0.064000, 0.992000, 8.390184, 2.304838, 48.820496, 0.070718, -0.024856, 0.062573

1495173747.511082, 0.018326, -0.016493, 0.001833, -0.000000, 0.064000, 0.992000, 8.424425, 2.309063, 48.814399, 0.070826, -0.024581, 0.063316

1495173747.524569, 0.015882, -0.017104, 0.002443, 0.016000, 0.080000, 1.008000, 8.437531, 2.313521, 48.811924, 0.071191, -0.024623, 0.066070

1495173747.538048, 0.020464, -0.015882, 0.005192, 0.032000, 0.064000, 0.992000, 8.448025, 2.317090, 48.809940, 0.071329, -0.024992, 0.067206

1495173747.551484, 0.021380, -0.014661, 0.004887, 0.032000, 0.064000, 0.992000, 8.456425, 2.319948, 48.808349, 0.071474, -0.025336, 0.068305

1495173747.565080, 0.020464, -0.016799, 0.002443, 0.016000, 0.032000, 0.976000, 8.392408, 2.304598, 48.820125, 0.070989, -0.025322, 0.065111

1495173747.578539, 0.022297, -0.012523, 0.006109, -0.000000, 0.048000, 0.976000, 8.341134, 2.292304, 48.829490, 0.070857, -0.024975, 0.064144

1495173747.591997, 0.016188, -0.014966, 0.002443, -0.000000, 0.048000, 0.976000, 8.275198, 2.335407, 48.838665, 0.070650, -0.024662, 0.063045

1495173747.605456, 0.015882, -0.016493, 0.001222, 0.016000, 0.064000, 0.992000, 8.222478, 2.369857, 48.845910, 0.070731, -0.024712, 0.063875

1495173747.618908, 0.013134, -0.016493, -0.000305, 0.032000, 0.048000, 0.976000, 8.180320, 2.397396, 48.851644, 0.070468, -0.025075, 0.062593

1495173747.632365, 0.018326, -0.016799, 0.003665, 0.032000, 0.048000, 0.976000, 8.192012, 2.422056, 48.848468, 0.070278, -0.025439, 0.061312

1495173747.645822, 0.020769, -0.016188, 0.005803, 0.016000, 0.048000, 0.976000, 8.201378, 2.441814, 48.845913, 0.070134, -0.025462, 0.060043

1495173747.659270, 0.017410, -0.011606, 0.004581, 0.016000, 0.048000, 0.976000, 8.219695, 2.491943, 48.840302, 0.069949, -0.025422, 0.058651

1495173747.672728, 0.017104, -0.012217, 0.003360, 0.016000, 0.048000, 0.992000, 8.234331, 2.532018, 48.835775, 0.069749, -0.025383, 0.057059

1495173747.686182, 0.018326, -0.011606, 0.005192, 0.016000, 0.064000, 0.992000, 8.246030, 2.564060, 48.832129, 0.069881, -0.025355, 0.057542

1495173747.699633, 0.020159, -0.013744, 0.003054, 0.016000, 0.064000, 0.992000, 8.298193, 2.518586, 48.825659, 0.070035, -0.025355, 0.058094

1495173747.713092, 0.015577, -0.013134, 0.004887, -0.000000, 0.064000, 1.008000, 8.339956, 2.482166, 48.820408, 0.070102, -0.025027, 0.058461

1495173747.726552, 0.020464, -0.015882, 0.001833, -0.000000, 0.064000, 0.992000, 8.327296, 2.504981, 48.821404, 0.070254, -0.024738, 0.058845

1495173747.739979, 0.017410, -0.015272, 0.005192, -0.000000, 0.064000, 0.992000, 8.317180, 2.523207, 48.822190, 0.070361, -0.024449, 0.059225

1495173747.753429, 0.021991, -0.012523, 0.005498, -0.000000, 0.064000, 1.008000, 8.309096, 2.537772, 48.822811, 0.070508, -0.024131, 0.059451

1495173747.766897, 0.021380, -0.010385, 0.003054, -0.000000, 0.064000, 1.008000, 8.267658, 2.495157, 48.832042, 0.070644, -0.023789, 0.059753

